{
  "resourceType": "Bundle",
  "id": "VSDMBundle-Z987654321",
  "meta": {
    "profile": [
      "https://gematik.de/fhir/vsdm2/StructureDefinition/VSDMBundle|1.0.0"
    ]
  },
  "type": "document",
  "identifier": {
    "system": "urn:ietf:rfc:3986",
    "value": "urn:uuid:6dc3a6f8-6fec-40a5-9432-e9c339db0f5c"
  },
  "timestamp": "2025-07-14T15:16:17.890+01:00",
  "entry": [
    {
      "fullUrl": "https://gematik.de/fhir/Composition/9c850daf-a4fc-4f72-b52d-ea373c063dd4",
      "resource": {
        "resourceType": "Composition",
        "id": "9c850daf-a4fc-4f72-b52d-ea373c063dd4",
        "meta": {
          "profile": [
            "https://gematik.de/fhir/vsdm2/StructureDefinition/VSDMComposition|1.0.0"
          ]
        },
        "status": "final",
        "type": {
          "coding": [
            {
              "code": "55188-7",
              "system": "http://loinc.org",
              "display": "Patient data Document"
            }
          ]
        },
        "author": [
          {
            "identifier": {
              "system": "http://fhir.de/sid/arge-ik/iknr",
              "value": "103169760"
            }
          }
        ],
        "date": "2025-07-14T05:06:07.890+01:00",
        "title": "VSDM 2.0-Daten Z987654321 Graf von und zu Zaunkönig, Zacharias",
        "section": [
          {
            "entry": [
              {
                "reference": "Patient/VSDMPatient-Z987654321"
              }
            ]
          },
          {
            "entry": [
              {
                "reference": "Coverage/VSDMCoverage-Z987654321"
              }
            ]
          },
          {
            "entry": [
              {
                "reference": "Organization/VSDMPayorOrganization-108213958"
              }
            ]
          },
          {
            "entry": [
              {
                "reference": "Organization/VSDMPayorOrganization-100293710"
              }
            ]
          }
        ]
      }
    },
    {
      "fullUrl": "https://gematik.de/fhir/Patient/VSDMPatient-Z987654321",
      "resource": {
        "resourceType": "Patient",
        "id": "VSDMPatient-Z987654321",
        "meta": {
          "profile": [
            "https://gematik.de/fhir/vsdm2/StructureDefinition/VSDMPatient|1.0.0"
          ]
        },
        "name": [
          {
            "use": "official",
            "prefix": [
              "Prof. Dr. rer. nat."
            ],
            "_prefix": [
              {
                "extension": [
                  {
                    "valueCode": "AC",
                    "url": "http://hl7.org/fhir/StructureDefinition/iso21090-EN-qualifier"
                  }
                ]
              }
            ],
            "text": "Prof. Dr. rer. nat. Zacharias Graf von und zu Zaunkönig",
            "family": "Graf von und zu Zaunkönig",
            "_family": {
              "extension": [
                {
                  "url": "http://fhir.de/StructureDefinition/humanname-namenszusatz",
                  "valueString": "Graf"
                },
                {
                  "url": "http://hl7.org/fhir/StructureDefinition/humanname-own-name",
                  "valueString": "Zaunkönig"
                },
                {
                  "url": "http://hl7.org/fhir/StructureDefinition/humanname-own-prefix",
                  "valueString": "von und zu"
                }
              ]
            },
            "given": [
              "Zacharias"
            ]
          }
        ],
        "identifier": [
          {
            "system": "http://fhir.de/sid/gkv/kvid-10",
            "value": "Z987654321"
          }
        ],
        "address": [
          {
            "type": "physical",
            "line": [
              "Zaunkönigpfad 99x",
              "zweites Nest rechter Ast"
            ],
            "_line": [
              {
                "extension": [
                  {
                    "url": "http://hl7.org/fhir/StructureDefinition/iso21090-ADXP-houseNumber",
                    "valueString": "99x"
                  },
                  {
                    "url": "http://hl7.org/fhir/StructureDefinition/iso21090-ADXP-streetName",
                    "valueString": "Zaunkönigpfad"
                  }
                ]
              },
              {
                "extension": [
                  {
                    "url": "http://hl7.org/fhir/StructureDefinition/iso21090-ADXP-additionalLocator",
                    "valueString": "zweites Nest rechter Ast"
                  }
                ]
              }
            ],
            "city": "Zwickau",
            "postalCode": "08066",
            "country": "DE",
            "_country": {
              "extension": [
                {
                  "url": "https://gematik.de/fhir/vsdm2/StructureDefinition/VSDMLaenderkennzeichen",
                  "valueCoding": {
                    "system": "http://fhir.de/CodeSystem/deuev/anlage-8-laenderkennzeichen",
                    "code": "D",
                    "display": "Deutschland"
                  }
                }
              ]
            }
          },
          {
            "type": "postal",
            "line": [
              "Postfach 885522"
            ],
            "_line": [
              {
                "extension": [
                  {
                    "url": "http://hl7.org/fhir/StructureDefinition/iso21090-ADXP-postBox",
                    "valueString": "Postfach 885522"
                  }
                ]
              }
            ],
            "city": "Zwickau",
            "postalCode": "08062",
            "country": "DE",
            "_country": {
              "extension": [
                {
                  "url": "https://gematik.de/fhir/vsdm2/StructureDefinition/VSDMLaenderkennzeichen",
                  "valueCoding": {
                    "system": "http://fhir.de/CodeSystem/deuev/anlage-8-laenderkennzeichen",
                    "code": "D",
                    "display": "Deutschland"
                  }
                }
              ]
            }
          }
        ],
        "birthDate": "1987-05-16",
        "gender": "other",
        "_gender": {
          "extension": [
            {
              "url": "http://fhir.de/StructureDefinition/gender-amtlich-de",
              "valueCoding": {
                "code": "X",
                "display": "unbestimmt"
              }
            }
          ]
        }
      }
    },
    {
      "fullUrl": "https://gematik.de/fhir/Coverage/VSDMCoverage-Z987654321",
      "resource": {
        "resourceType": "Coverage",
        "id": "VSDMCoverage-Z987654321",
        "meta": {
          "profile": [
            "https://gematik.de/fhir/vsdm2/StructureDefinition/VSDMCoverage|1.0.0"
          ]
        },
        "extension": [
          {
            "url": "http://fhir.de/StructureDefinition/gkv/wop",
            "valueCoding": {
              "system": "https://fhir.kbv.de/CodeSystem/KBV_CS_SFHIR_ITA_WOP",
              "code": "98",
              "display": "Sachsen"
            }
          },
          {
            "url": "http://fhir.de/StructureDefinition/gkv/versichertenart",
            "valueCoding": {
              "code": "3",
              "system": "https://fhir.kbv.de/CodeSystem/KBV_CS_SFHIR_KBV_VERSICHERTENSTATUS",
              "display": "Familienangehoerige"
            }
          },
          {
            "url": "https://gematik.de/fhir/vsdm2/StructureDefinition/VSDMDMPTeilnahme",
            "extension": [
              {
                "url": "dmp",
                "valueCoding": {
                  "system": "https://fhir.kbv.de/CodeSystem/KBV_CS_SFHIR_KBV_DMP",
                  "code": "01",
                  "display": "DM2"
                }
              },
              {
                "url": "zeitraum",
                "valuePeriod": {
                  "start": "2001-01-01"
                }
              },
              {
                "url": "digitalesDMP",
                "valueBoolean": false
              }
            ]
          },
          {
            "url": "https://gematik.de/fhir/vsdm2/StructureDefinition/VSDMDMPTeilnahme",
            "extension": [
              {
                "url": "dmp",
                "valueCoding": {
                  "system": "https://fhir.kbv.de/CodeSystem/KBV_CS_SFHIR_KBV_DMP",
                  "code": "08",
                  "display": "Depression"
                }
              },
              {
                "url": "zeitraum",
                "valuePeriod": {
                  "start": "2020-01-01",
                  "end": "2023-12-31"
                }
              },
              {
                "url": "digitalesDMP",
                "valueBoolean": true
              }
            ]
          },
          {
            "valueCoding": {
              "system": "https://fhir.kbv.de/CodeSystem/KBV_CS_SFHIR_KBV_PERSONENGRUPPE",
              "code": "07",
              "display": "SVA1"
            },
            "url": "http://fhir.de/StructureDefinition/gkv/besondere-personengruppe"
          },
          {
            "url": "http://fhir.de/StructureDefinition/gkv/zuzahlungsstatus",
            "extension": [
              {
                "url": "status",
                "valueBoolean": true
              },
              {
                "url": "gueltigBis",
                "valueDate": "2025-12-31"
              }
            ]
          },
          {
            "url": "http://fhir.de/StructureDefinition/gkv/kostenerstattung",
            "extension": [
              {
                "url": "aerztlicheVersorgung",
                "valueBoolean": true
              },
              {
                "url": "zahnaerztlicheVersorgung",
                "valueBoolean": true
              },
              {
                "url": "stationaererBereich",
                "valueBoolean": true
              },
              {
                "url": "veranlassteLeistungen",
                "valueBoolean": false
              }
            ]
          },
          {
            "url": "http://fhir.de/StructureDefinition/gkv/ruhender-leistungsanspruch",
            "extension": [
              {
                "url": "art",
                "valueCoding": {
                  "code": "1",
                  "display": "vollständig"
                }
              },
              {
                "url": "dauer",
                "valuePeriod": {
                  "start": "2025-01-01",
                  "end": "2025-12-31"
                }
              }
            ]
          }
        ],
        "payor": [
          {
            "extension": [
              {
                "valueCoding": {
                  "system": "https://gematik.de/fhir/vsdm2/CodeSystem/VSDMKostentraegerRolleCS",
                  "code": "H",
                  "display": "Haupt-Kostenträger"
                },
                "url": "https://gematik.de/fhir/vsdm2/StructureDefinition/VSDMKostentraegerRolle"
              }
            ],
            "reference": "Organization/VSDMPayorOrganization-108213958"
          },
          {
            "extension": [
              {
                "valueCoding": {
                  "system": "https://gematik.de/fhir/vsdm2/CodeSystem/VSDMKostentraegerRolleCS",
                  "code": "A",
                  "display": "abrechnender Kostenträger"
                },
                "url": "https://gematik.de/fhir/vsdm2/StructureDefinition/VSDMKostentraegerRolle"
              }
            ],
            "reference": "Organization/VSDMPayorOrganization-100293710"
          }
        ],
        "status": "active",
        "type": {
          "coding": [
            {
              "code": "GKV",
              "system": "http://fhir.de/CodeSystem/versicherungsart-de-basis"
            }
          ]
        },
        "beneficiary": {
          "reference": "Patient/VSDMPatient-Z987654321"
        },
        "period": {
          "start": "2000-01-01",
          "end": "2029-12-31"
        }
      }
    },
    {
      "fullUrl": "https://gematik.de/fhir/Organization/VSDMPayorOrganization-108213958",
      "resource": {
        "resourceType": "Organization",
        "id": "VSDMPayorOrganization-108213958",
        "meta": {
          "profile": [
            "https://gematik.de/fhir/vsdm2/StructureDefinition/VSDMPayorOrganization|1.0.0"
          ]
        },
        "identifier": [
          {
            "system": "http://fhir.de/sid/arge-ik/iknr",
            "value": "108213958"
          }
        ],
        "address": [
          {
            "country": "DE",
            "_country": {
              "extension": [
                {
                  "url": "https://gematik.de/fhir/vsdm2/StructureDefinition/VSDMLaenderkennzeichen",
                  "valueCoding": {
                    "system": "http://fhir.de/CodeSystem/deuev/anlage-8-laenderkennzeichen",
                    "code": "D",
                    "display": "Deutschland"
                  }
                }
              ]
            }
          }
        ],
        "name": "Beispielkostenträger Leipzig",
        "contact": [
          {
            "purpose": {
              "coding": [
                {
                  "code": "BILL",
                  "system": "http://terminology.hl7.org/CodeSystem/contactentity-type"
                }
              ],
              "text": "Kontakt für Abrechnungsfragen"
            },
            "telecom": [
              {
                "system": "phone",
                "value": "+4952116391643"
              },
              {
                "system": "email",
                "value": "contact@kostentraeger.invalid"
              }
            ]
          }
        ]
      }
    },
    {
      "fullUrl": "https://gematik.de/fhir/Organization/VSDMPayorOrganization-100293710",
      "resource": {
        "resourceType": "Organization",
        "id": "VSDMPayorOrganization-100293710",
        "meta": {
          "profile": [
            "https://gematik.de/fhir/vsdm2/StructureDefinition/VSDMPayorOrganization|1.0.0"
          ]
        },
        "identifier": [
          {
            "system": "http://fhir.de/sid/arge-ik/iknr",
            "value": "100293710"
          }
        ],
        "address": [
          {
            "country": "DE",
            "_country": {
              "extension": [
                {
                  "url": "https://gematik.de/fhir/vsdm2/StructureDefinition/VSDMLaenderkennzeichen",
                  "valueCoding": {
                    "system": "http://fhir.de/CodeSystem/deuev/anlage-8-laenderkennzeichen",
                    "code": "D",
                    "display": "Deutschland"
                  }
                }
              ]
            }
          }
        ],
        "name": "Beispielkostenträger Schwerin",
        "contact": [
          {
            "purpose": {
              "coding": [
                {
                  "code": "BILL",
                  "system": "http://terminology.hl7.org/CodeSystem/contactentity-type"
                }
              ],
              "text": "Kontakt für Abrechnungsfragen"
            },
            "telecom": [
              {
                "system": "phone",
                "value": "+4952116391643"
              },
              {
                "system": "email",
                "value": "contact@kostentraeger.invalid"
              }
            ]
          }
        ]
      }
    }
  ]
}
