{
  "resourceType": "Bundle",
  "id": "VSDMBundle-GKV-H890123459",
  "meta": {
    "profile": [
      "https://gematik.de/fhir/vsdm2/StructureDefinition/VSDMBundle|1.0.0"
    ],
    "lastUpdated": "2025-07-14T15:16:17.890+01:00"
  },
  "type": "collection",
  "timestamp": "2025-07-14T15:16:17.890+01:00",
  "entry": [
    {
      "fullUrl": "https://gematik.de/fhir/Patient/VSDMPatient-GKV-H890123459",
      "resource": {
        "resourceType": "Patient",
        "id": "VSDMPatient-GKV-H890123459",
        "meta": {
          "profile": [
            "https://gematik.de/fhir/vsdm2/StructureDefinition/VSDMPatient|1.0.0"
          ]
        },
        "name": [
          {
            "use": "official",
            "prefix": [
              "Dr.-Ing."
            ],
            "_prefix": [
              {
                "extension": [
                  {
                    "valueCode": "AC",
                    "url": "http://hl7.org/fhir/StructureDefinition/iso21090-EN-qualifier"
                  }
                ]
              }
            ],
            "text": "Dr.-Ing. Hans vorm Habicht",
            "family": "vorm Habicht",
            "_family": {
              "extension": [
                {
                  "url": "http://hl7.org/fhir/StructureDefinition/humanname-own-name",
                  "valueString": "Habicht"
                },
                {
                  "url": "http://hl7.org/fhir/StructureDefinition/humanname-own-prefix",
                  "valueString": "vorm"
                }
              ]
            },
            "given": [
              "Hans"
            ]
          }
        ],
        "identifier": [
          {
            "system": "http://fhir.de/sid/gkv/kvid-10",
            "value": "H890123459"
          }
        ],
        "address": [
          {
            "type": "physical",
            "line": [
              "Habichtpfad 7c",
              "zweite Laube rechts"
            ],
            "_line": [
              {
                "extension": [
                  {
                    "url": "http://hl7.org/fhir/StructureDefinition/iso21090-ADXP-houseNumber",
                    "valueString": "7c"
                  },
                  {
                    "url": "http://hl7.org/fhir/StructureDefinition/iso21090-ADXP-streetName",
                    "valueString": "Habichtpfad"
                  }
                ]
              },
              {
                "extension": [
                  {
                    "url": "http://hl7.org/fhir/StructureDefinition/iso21090-ADXP-additionalLocator",
                    "valueString": "zweite Laube rechts"
                  }
                ]
              }
            ],
            "city": "Hildesheim",
            "postalCode": "31135",
            "country": "Deutschland",
            "_country": {
              "extension": [
                {
                  "url": "http://hl7.org/fhir/StructureDefinition/iso21090-codedString",
                  "valueCoding": {
                    "code": "DE",
                    "system": "urn:iso:std:iso:3166"
                  }
                },
                {
                  "url": "http://hl7.org/fhir/StructureDefinition/iso21090-codedString",
                  "valueCoding": {
                    "code": "D",
                    "system": "http://fhir.de/CodeSystem/deuev/anlage-8-laenderkennzeichen"
                  }
                }
              ]
            }
          }
        ],
        "birthDate": "1953-07-29",
        "gender": "male"
      }
    },
    {
      "fullUrl": "https://gematik.de/fhir/Coverage/VSDMCoverage-GKV-H890123459",
      "resource": {
        "resourceType": "Coverage",
        "id": "VSDMCoverage-GKV-H890123459",
        "meta": {
          "profile": [
            "https://gematik.de/fhir/vsdm2/StructureDefinition/VSDMCoverage|1.0.0"
          ]
        },
        "extension": [
          {
            "url": "http://fhir.de/StructureDefinition/gkv/versichertenart",
            "valueCoding": {
              "code": "5",
              "system": "https://fhir.kbv.de/CodeSystem/KBV_CS_SFHIR_KBV_VERSICHERTENSTATUS",
              "display": "Rentner"
            }
          },
          {
            "valueCoding": {
              "system": "https://fhir.kbv.de/CodeSystem/KBV_CS_SFHIR_ITA_WOP",
              "code": "17",
              "display": "Niedersachsen"
            },
            "url": "http://fhir.de/StructureDefinition/gkv/wop"
          },
          {
            "valueCoding": {
              "system": "https://fhir.kbv.de/CodeSystem/KBV_CS_SFHIR_KBV_PERSONENGRUPPE",
              "code": "07",
              "display": "SVA1"
            },
            "url": "http://fhir.de/StructureDefinition/gkv/besondere-personengruppe"
          },
          {
            "url": "http://fhir.de/StructureDefinition/gkv/zuzahlungsstatus",
            "extension": [
              {
                "url": "status",
                "valueBoolean": true
              },
              {
                "url": "gueltigBis",
                "valueDate": "2024-03-31"
              }
            ]
          },
          {
            "url": "https://gematik.de/fhir/vsdm2/StructureDefinition/VSDMDMPTeilnahme",
            "extension": [
              {
                "url": "dmp",
                "valueCoding": {
                  "system": "https://fhir.kbv.de/CodeSystem/KBV_CS_SFHIR_KBV_DMP",
                  "code": "01",
                  "display": "DM2"
                }
              },
              {
                "url": "zeitraum",
                "valuePeriod": {
                  "start": "2001-01-01",
                  "end": "2024-03-31"
                }
              },
              {
                "url": "digitalesDMP",
                "valueBoolean": false
              }
            ]
          },
          {
            "url": "https://gematik.de/fhir/vsdm2/StructureDefinition/VSDMDMPTeilnahme",
            "extension": [
              {
                "url": "dmp",
                "valueCoding": {
                  "system": "https://fhir.kbv.de/CodeSystem/KBV_CS_SFHIR_KBV_DMP",
                  "code": "06",
                  "display": "COPD"
                }
              },
              {
                "url": "zeitraum",
                "valuePeriod": {
                  "start": "2020-01-01",
                  "end": "2023-12-31"
                }
              },
              {
                "url": "digitalesDMP",
                "valueBoolean": true
              }
            ]
          }
        ],
        "payor": [
          {
            "extension": [
              {
                "valueCoding": {
                  "system": "https://gematik.de/fhir/vsdm2/CodeSystem/VSDMKostentraegerRolleCS",
                  "code": "H",
                  "display": "Haupt-Kostenträger"
                },
                "url": "https://gematik.de/fhir/vsdm2/StructureDefinition/VSDMKostentraegerRolle"
              }
            ],
            "reference": "Organization/VSDMPayorOrganization-102249844"
          },
          {
            "extension": [
              {
                "valueCoding": {
                  "system": "https://gematik.de/fhir/vsdm2/CodeSystem/VSDMKostentraegerRolleCS",
                  "code": "A",
                  "display": "abrechnender Kostenträger"
                },
                "url": "https://gematik.de/fhir/vsdm2/StructureDefinition/VSDMKostentraegerRolle"
              }
            ],
            "reference": "Organization/VSDMPayorOrganization-102186348"
          }
        ],
        "status": "active",
        "type": {
          "coding": [
            {
              "code": "GKV",
              "system": "http://fhir.de/CodeSystem/versicherungsart-de-basis"
            }
          ]
        },
        "beneficiary": {
          "reference": "Patient/VSDMPatient-GKV-H890123459"
        },
        "period": {
          "start": "1953-01-01",
          "end": "2024-03-31"
        }
      }
    },
    {
      "fullUrl": "https://gematik.de/fhir/Organization/VSDMPayorOrganization-102249844",
      "resource": {
        "resourceType": "Organization",
        "id": "VSDMPayorOrganization-102249844",
        "meta": {
          "profile": [
            "https://gematik.de/fhir/vsdm2/StructureDefinition/VSDMPayorOrganization|1.0.0"
          ]
        },
        "identifier": [
          {
            "system": "http://fhir.de/sid/arge-ik/iknr",
            "value": "102249844"
          }
        ],
        "address": [
          {
            "country": "Deutschland",
            "_country": {
              "extension": [
                {
                  "url": "http://hl7.org/fhir/StructureDefinition/iso21090-codedString",
                  "valueCoding": {
                    "code": "DE",
                    "system": "urn:iso:std:iso:3166"
                  }
                },
                {
                  "url": "http://hl7.org/fhir/StructureDefinition/iso21090-codedString",
                  "valueCoding": {
                    "code": "D",
                    "system": "http://fhir.de/CodeSystem/deuev/anlage-8-laenderkennzeichen"
                  }
                }
              ]
            }
          }
        ],
        "name": "Beispielkostenträger Hildesheim"
      }
    },
    {
      "fullUrl": "https://gematik.de/fhir/Organization/VSDMPayorOrganization-102186348",
      "resource": {
        "resourceType": "Organization",
        "id": "VSDMPayorOrganization-102186348",
        "meta": {
          "profile": [
            "https://gematik.de/fhir/vsdm2/StructureDefinition/VSDMPayorOrganization|1.0.0"
          ]
        },
        "identifier": [
          {
            "system": "http://fhir.de/sid/arge-ik/iknr",
            "value": "102186348"
          }
        ],
        "address": [
          {
            "country": "Deutschland",
            "_country": {
              "extension": [
                {
                  "url": "http://hl7.org/fhir/StructureDefinition/iso21090-codedString",
                  "valueCoding": {
                    "code": "DE",
                    "system": "urn:iso:std:iso:3166"
                  }
                },
                {
                  "url": "http://hl7.org/fhir/StructureDefinition/iso21090-codedString",
                  "valueCoding": {
                    "code": "D",
                    "system": "http://fhir.de/CodeSystem/deuev/anlage-8-laenderkennzeichen"
                  }
                }
              ]
            }
          }
        ],
        "name": "Beispielkostenträger Hannover"
      }
    }
  ]
}
