{
  "resourceType": "Bundle",
  "id": "VSDMBundle-G789012344",
  "meta": {
    "profile": [
      "https://gematik.de/fhir/vsdm2/StructureDefinition/VSDMBundle"
    ]
  },
  "type": "document",
  "identifier": {
    "system": "urn:ietf:rfc:3986",
    "value": "urn:uuid:b8aab485-0cf4-4600-9e47-db2177236ae7"
  },
  "timestamp": "2025-07-14T15:16:17.890+01:00",
  "entry": [
    {
      "fullUrl": "https://gematik.de/fhir/Composition/7023f33d-f186-42b9-8ac0-12f8386e1e0b",
      "resource": {
        "resourceType": "Composition",
        "id": "7023f33d-f186-42b9-8ac0-12f8386e1e0b",
        "meta": {
          "profile": [
            "https://gematik.de/fhir/vsdm2/StructureDefinition/VSDMComposition"
          ]
        },
        "status": "final",
        "type": {
          "coding": [
            {
              "code": "55188-7",
              "system": "http://loinc.org",
              "display": "Patient data Document"
            }
          ]
        },
        "author": [
          {
            "identifier": {
              "system": "http://fhir.de/sid/arge-ik/iknr",
              "value": "105413578"
            }
          }
        ],
        "date": "2025-07-14T05:06:07.890+01:00",
        "title": "VSDM 2.0-Daten G789012344 Edle von der Graugans, Gabriele",
        "section": [
          {
            "entry": [
              {
                "reference": "Patient/VSDMPatient-G789012344"
              }
            ]
          },
          {
            "entry": [
              {
                "reference": "Coverage/VSDMCoverage-G789012344"
              }
            ]
          },
          {
            "entry": [
              {
                "reference": "Organization/VSDMPayorOrganization-105413578"
              }
            ]
          }
        ]
      }
    },
    {
      "fullUrl": "https://gematik.de/fhir/Patient/VSDMPatient-G789012344",
      "resource": {
        "resourceType": "Patient",
        "id": "VSDMPatient-G789012344",
        "meta": {
          "profile": [
            "https://gematik.de/fhir/vsdm2/StructureDefinition/VSDMPatient"
          ]
        },
        "name": [
          {
            "use": "official",
            "text": "Gabriele Edle von der Graugans",
            "family": "Edle von der Graugans",
            "_family": {
              "extension": [
                {
                  "url": "http://fhir.de/StructureDefinition/humanname-namenszusatz",
                  "valueString": "Edle"
                },
                {
                  "url": "http://hl7.org/fhir/StructureDefinition/humanname-own-name",
                  "valueString": "Graugans"
                },
                {
                  "url": "http://hl7.org/fhir/StructureDefinition/humanname-own-prefix",
                  "valueString": "von der"
                }
              ]
            },
            "given": [
              "Gabriele"
            ]
          }
        ],
        "identifier": [
          {
            "system": "http://fhir.de/sid/gkv/kvid-10",
            "value": "G789012344"
          }
        ],
        "address": [
          {
            "type": "physical",
            "line": [
              "Am Gänseweiher 66"
            ],
            "_line": [
              {
                "extension": [
                  {
                    "url": "http://hl7.org/fhir/StructureDefinition/iso21090-ADXP-houseNumber",
                    "valueString": "66"
                  },
                  {
                    "url": "http://hl7.org/fhir/StructureDefinition/iso21090-ADXP-streetName",
                    "valueString": "Am Gänseweiher"
                  }
                ]
              }
            ],
            "city": "Gießen",
            "postalCode": "35392",
            "country": "DE",
            "_country": {
              "extension": [
                {
                  "url": "https://gematik.de/fhir/vsdm2/StructureDefinition/VSDMLaenderkennzeichen",
                  "valueCoding": {
                    "system": "http://fhir.de/CodeSystem/deuev/anlage-8-laenderkennzeichen",
                    "code": "D",
                    "display": "Deutschland"
                  }
                }
              ]
            }
          }
        ],
        "birthDate": "1974-02-12",
        "gender": "female"
      }
    },
    {
      "fullUrl": "https://gematik.de/fhir/Coverage/VSDMCoverage-G789012344",
      "resource": {
        "resourceType": "Coverage",
        "id": "VSDMCoverage-G789012344",
        "meta": {
          "profile": [
            "https://gematik.de/fhir/vsdm2/StructureDefinition/VSDMCoverage"
          ]
        },
        "extension": [
          {
            "url": "http://fhir.de/StructureDefinition/gkv/wop",
            "valueCoding": {
              "system": "https://fhir.kbv.de/CodeSystem/KBV_CS_SFHIR_ITA_WOP",
              "code": "46",
              "display": "Hessen"
            }
          },
          {
            "url": "http://fhir.de/StructureDefinition/gkv/versichertenart",
            "valueCoding": {
              "code": "1",
              "system": "https://fhir.kbv.de/CodeSystem/KBV_CS_SFHIR_KBV_VERSICHERTENSTATUS",
              "display": "Mitglied"
            }
          },
          {
            "url": "http://fhir.de/StructureDefinition/gkv/zuzahlungsstatus",
            "extension": [
              {
                "url": "status",
                "valueBoolean": true
              },
              {
                "url": "gueltigBis",
                "valueDate": "2026-12-31"
              }
            ]
          },
          {
            "url": "http://fhir.de/StructureDefinition/gkv/kostenerstattung",
            "extension": [
              {
                "url": "aerztlicheVersorgung",
                "valueBoolean": true
              },
              {
                "url": "zahnaerztlicheVersorgung",
                "valueBoolean": true
              },
              {
                "url": "stationaererBereich",
                "valueBoolean": true
              },
              {
                "url": "veranlassteLeistungen",
                "valueBoolean": true
              }
            ]
          },
          {
            "url": "http://fhir.de/StructureDefinition/gkv/ruhender-leistungsanspruch",
            "extension": [
              {
                "url": "art",
                "valueCoding": {
                  "code": "2",
                  "display": "eingeschränkt"
                }
              },
              {
                "url": "dauer",
                "valuePeriod": {
                  "start": "2025-06-01",
                  "end": "2027-12-31"
                }
              }
            ]
          }
        ],
        "payor": [
          {
            "extension": [
              {
                "valueCoding": {
                  "system": "https://gematik.de/fhir/vsdm2/CodeSystem/VSDMKostentraegerRolleCS",
                  "code": "H",
                  "display": "Haupt-Kostenträger"
                },
                "url": "https://gematik.de/fhir/vsdm2/StructureDefinition/VSDMKostentraegerRolle"
              }
            ],
            "reference": "Organization/VSDMPayorOrganization-105413578"
          }
        ],
        "status": "active",
        "type": {
          "coding": [
            {
              "code": "GKV"
            }
          ]
        },
        "beneficiary": {
          "reference": "Patient/VSDMPatient-G789012344"
        },
        "period": {
          "start": "1974-02-12"
        }
      }
    },
    {
      "fullUrl": "https://gematik.de/fhir/Organization/VSDMPayorOrganization-105413578",
      "resource": {
        "resourceType": "Organization",
        "id": "VSDMPayorOrganization-105413578",
        "meta": {
          "profile": [
            "https://gematik.de/fhir/vsdm2/StructureDefinition/VSDMPayorOrganization"
          ]
        },
        "identifier": [
          {
            "system": "http://fhir.de/sid/arge-ik/iknr",
            "value": "105413578"
          }
        ],
        "address": [
          {
            "country": "DE",
            "_country": {
              "extension": [
                {
                  "url": "https://gematik.de/fhir/vsdm2/StructureDefinition/VSDMLaenderkennzeichen",
                  "valueCoding": {
                    "system": "http://fhir.de/CodeSystem/deuev/anlage-8-laenderkennzeichen",
                    "code": "D",
                    "display": "Deutschland"
                  }
                }
              ]
            }
          }
        ],
        "name": "Beispielkostenträger Gießen",
        "contact": [
          {
            "purpose": {
              "coding": [
                {
                  "code": "BILL"
                }
              ],
              "text": "Kontakt für Abrechnungsfragen"
            },
            "telecom": [
              {
                "system": "phone",
                "value": "+4952116391643"
              },
              {
                "system": "email",
                "value": "contact@kostentraeger.invalid"
              }
            ]
          }
        ]
      }
    }
  ]
}
