{
  "resourceType": "Bundle",
  "id": "9b6ac30d-246d-4eab-af83-544564792089",
  "meta": {
    "profile": [
      "https://gematik.de/fhir/vsdm2/StructureDefinition/VSDMBundle"
    ]
  },
  "type": "document",
  "identifier": {
    "system": "urn:ietf:rfc:3986",
    "value": "urn:uuid:9b6ac30d-246d-4eab-af83-544564792089"
  },
  "timestamp": "2023-11-03T12:02:23.157+01:00",
  "entry": [
    {
      "fullUrl": "https://gematik.de/fhir/Composition/c624cf47-e235-4624-af71-0a09dc9254dc",
      "resource": {
        "resourceType": "Composition",
        "id": "c624cf47-e235-4624-af71-0a09dc9254dc",
        "meta": {
          "profile": [
            "https://gematik.de/fhir/vsdm2/StructureDefinition/VSDMComposition"
          ]
        },
        "status": "final",
        "type": {
          "coding": [
            {
              "code": "55188-7",
              "system": "http://loinc.org",
              "display": "Patient data Document"
            }
          ]
        },
        "author": [
          {
            "identifier": {
              "system": "http://fhir.de/sid/arge-ik/iknr",
              "value": "12345678"
            }
          }
        ],
        "date": "2023-11-03T12:02:23.157+01:00",
        "title": "VSDM 2 data",
        "section": [
          {
            "entry": [
              {
                "reference": "Patient/437f2555-2396-4c64-a656-e9553161ca3c"
              }
            ]
          },
          {
            "entry": [
              {
                "reference": "Coverage/2d4da53a-413a-48fe-b908-2e67b5761523"
              }
            ]
          }
        ]
      }
    },
    {
      "fullUrl": "https://gematik.de/fhir/Patient/437f2555-2396-4c64-a656-e9553161ca3c",
      "resource": {
        "resourceType": "Patient",
        "id": "437f2555-2396-4c64-a656-e9553161ca3c",
        "meta": {
          "profile": [
            "https://gematik.de/fhir/vsdm2/StructureDefinition/VSDMPatient"
          ]
        },
        "name": [
          {
            "use": "official",
            "prefix": [
              "Prof. Dr. med. Dr. rer. nat."
            ],
            "_prefix": [
              {
                "extension": [
                  {
                    "valueCode": "AC",
                    "url": "http://hl7.org/fhir/StructureDefinition/iso21090-EN-qualifier"
                  }
                ]
              }
            ],
            "family": "Graf von und zu Königstein",
            "_family": {
              "extension": [
                {
                  "url": "http://fhir.de/StructureDefinition/humanname-namenszusatz",
                  "valueString": "Graf"
                },
                {
                  "url": "http://hl7.org/fhir/StructureDefinition/humanname-own-name",
                  "valueString": "Königstein"
                },
                {
                  "url": "http://hl7.org/fhir/StructureDefinition/humanname-own-prefix",
                  "valueString": "von und zu"
                }
              ]
            },
            "given": [
              "Ludger"
            ],
            "text": "Prof. Dr. med. Dr. rer. nat. Ludger Graf von und zu Königstein"
          }
        ],
        "identifier": [
          {
            "system": "http://fhir.de/sid/gkv/kvid-10",
            "value": "T024791905"
          }
        ],
        "address": [
          {
            "type": "physical",
            "line": [
              "Blumenweg 14",
              "Hinterhaus links"
            ],
            "_line": [
              {
                "extension": [
                  {
                    "url": "http://hl7.org/fhir/StructureDefinition/iso21090-ADXP-houseNumber",
                    "valueString": "14"
                  },
                  {
                    "url": "http://hl7.org/fhir/StructureDefinition/iso21090-ADXP-streetName",
                    "valueString": "Blumenweg"
                  }
                ]
              },
              {
                "extension": [
                  {
                    "url": "http://hl7.org/fhir/StructureDefinition/iso21090-ADXP-additionalLocator",
                    "valueString": "Hinterhaus links"
                  }
                ]
              }
            ],
            "city": "Esens",
            "postalCode": "26427",
            "country": "DE",
            "_country": {
              "extension": [
                {
                  "url": "https://gematik.de/fhir/vsdm2/StructureDefinition/VSDMLaenderkennzeichen",
                  "valueCoding": {
                    "system": "http://fhir.de/CodeSystem/deuev/anlage-8-laenderkennzeichen",
                    "code": "D",
                    "display": "Deutschland"
                  }
                }
              ]
            }
          },
          {
            "type": "postal",
            "line": [
              "Postfach 123456"
            ],
            "_line": [
              {
                "extension": [
                  {
                    "url": "http://hl7.org/fhir/StructureDefinition/iso21090-ADXP-postBox",
                    "valueString": "Postfach 12345"
                  }
                ]
              }
            ],
            "city": "Esens",
            "postalCode": "26429",
            "country": "DE",
            "_country": {
              "extension": [
                {
                  "url": "https://gematik.de/fhir/vsdm2/StructureDefinition/VSDMLaenderkennzeichen",
                  "valueCoding": {
                    "system": "http://fhir.de/CodeSystem/deuev/anlage-8-laenderkennzeichen",
                    "code": "D",
                    "display": "Deutschland"
                  }
                }
              ]
            }
          }
        ],
        "gender": "male",
        "birthDate": "1935-06-22"
      }
    },
    {
      "fullUrl": "https://gematik.de/fhir/Coverage/2d4da53a-413a-48fe-b908-2e67b5761523",
      "resource": {
        "resourceType": "Coverage",
        "id": "2d4da53a-413a-48fe-b908-2e67b5761523",
        "meta": {
          "profile": [
            "https://gematik.de/fhir/vsdm2/StructureDefinition/VSDMCoverage"
          ]
        },
        "extension": [
          {
            "url": "http://fhir.de/StructureDefinition/gkv/wop",
            "valueCoding": {
              "code": "17",
              "system": "http://fhir.kbv.de/CodeSystem/KBV_CS_SFHIR_ITA_WOP",
              "display": "Niedersachsen"
            }
          },
          {
            "url": "http://fhir.de/StructureDefinition/gkv/ruhender-leistungsanspruch",
            "extension": [
              {
                "url": "art",
                "valueCoding": {
                  "code": "1"
                }
              },
              {
                "url": "dauer",
                "valuePeriod": {
                  "start": "2022-05-05"
                }
              }
            ]
          },
          {
            "url": "http://fhir.de/StructureDefinition/gkv/versichertenart",
            "valueCoding": {
              "code": "1",
              "system": "http://fhir.kbv.de/CodeSystem/KBV_CS_SFHIR_KBV_VERSICHERTENSTATUS"
            }
          },
          {
            "url": "http://fhir.de/StructureDefinition/gkv/besondere-personengruppe",
            "valueCoding": {
              "code": "06",
              "system": "http://fhir.kbv.de/CodeSystem/KBV_CS_SFHIR_KBV_PERSONENGRUPPE",
              "display": "SER (Soziales Entschädigungsrecht)"
            }
          },
          {
            "extension": [
              {
                "valueBoolean": true,
                "url": "status"
              },
              {
                "url": "gueltigBis",
                "valueDate": "2026-12-31"
              }
            ],
            "url": "http://fhir.de/StructureDefinition/gkv/zuzahlungsstatus"
          },
          {
            "extension": [
              {
                "valueCoding": {
                  "system": "http://fhir.kbv.de/CodeSystem/KBV_CS_SFHIR_KBV_DMP",
                  "code": "01",
                  "display": "Diabetes mellitus Typ 2"
                },
                "url": "dmp"
              },
              {
                "url": "zeitraum",
                "valuePeriod": {
                  "start": "2022-05-05"
                }
              },
              {
                "url": "digitalesDMP",
                "valueBoolean": true
              }
            ],
            "url": "https://gematik.de/fhir/vsdm2/StructureDefinition/VSDMDMPTeilnahme"
          },
          {
            "extension": [
              {
                "url": "aerztlicheVersorgung",
                "valueBoolean": true
              },
              {
                "url": "zahnaerztlicheVersorgung",
                "valueBoolean": true
              },
              {
                "url": "stationaererBereich",
                "valueBoolean": true
              },
              {
                "url": "veranlassteLeistungen",
                "valueBoolean": false
              }
            ],
            "url": "http://fhir.de/StructureDefinition/gkv/kostenerstattung"
          }
        ],
        "status": "active",
        "type": {
          "coding": [
            {
              "code": "GKV"
            }
          ]
        },
        "payor": [
          {
            "reference": "Organization/2a6924bf-6e6a-4ef3-b79f-c2138c10712f",
            "display": "Hauptkostenträger"
          },
          {
            "reference": "Organization/d1f7b106-7f99-40d6-9f21-50b051301127",
            "display": "abrechnender Kostenträger"
          }
        ],
        "period": {
          "start": "2022-04-01",
          "end": "2027-07-31"
        },
        "beneficiary": {
          "reference": "Patient/437f2555-2396-4c64-a656-e9553161ca3c"
        }
      }
    },
    {
      "fullUrl": "https://gematik.de/fhir/Organization/2a6924bf-6e6a-4ef3-b79f-c2138c10712f",
      "resource": {
        "resourceType": "Organization",
        "id": "2a6924bf-6e6a-4ef3-b79f-c2138c10712f",
        "meta": {
          "profile": [
            "https://gematik.de/fhir/vsdm2/StructureDefinition/VSDMPayorOrganization"
          ]
        },
        "identifier": [
          {
            "system": "http://fhir.de/sid/arge-ik/iknr",
            "value": "12345678"
          }
        ],
        "type": [
          {
            "coding": [
              {
                "system": "http://terminology.hl7.org/CodeSystem/organization-type",
                "code": "ins",
                "display": "Hauptkostenträger"
              }
            ]
          }
        ],
        "address": [
          {
            "country": "DE",
            "_country": {
              "extension": [
                {
                  "url": "https://gematik.de/fhir/vsdm2/StructureDefinition/VSDMLaenderkennzeichen",
                  "valueCoding": {
                    "system": "http://fhir.de/CodeSystem/deuev/anlage-8-laenderkennzeichen",
                    "code": "D",
                    "display": "Deutschland"
                  }
                }
              ]
            }
          }
        ],
        "name": "Beispiel-Hauptkostenträger"
      }
    },
    {
      "fullUrl": "https://gematik.de/fhir/Organization/d1f7b106-7f99-40d6-9f21-50b051301127",
      "resource": {
        "resourceType": "Organization",
        "id": "d1f7b106-7f99-40d6-9f21-50b051301127",
        "meta": {
          "profile": [
            "https://gematik.de/fhir/vsdm2/StructureDefinition/VSDMPayorOrganization"
          ]
        },
        "identifier": [
          {
            "system": "http://fhir.de/sid/arge-ik/iknr",
            "value": "18765432"
          }
        ],
        "type": [
          {
            "coding": [
              {
                "system": "http://terminology.hl7.org/CodeSystem/organization-type",
                "code": "pay",
                "display": "abrechnender Kostenträger"
              }
            ]
          }
        ],
        "address": [
          {
            "country": "DE",
            "_country": {
              "extension": [
                {
                  "url": "https://gematik.de/fhir/vsdm2/StructureDefinition/VSDMLaenderkennzeichen",
                  "valueCoding": {
                    "system": "http://fhir.de/CodeSystem/deuev/anlage-8-laenderkennzeichen",
                    "code": "D",
                    "display": "Deutschland"
                  }
                }
              ]
            }
          }
        ],
        "name": "abrechnender Beispiel-Kostenträger",
        "contact": [
          {
            "purpose": {
              "coding": [
                {
                  "code": "BILL",
                  "system": "http://terminology.hl7.org/CodeSystem/contactentity-type"
                }
              ],
              "text": "Kontakt für Abrechnungsfragen"
            },
            "telecom": [
              {
                "system": "phone",
                "value": "+4952116391643"
              },
              {
                "system": "email",
                "value": "contact@kostentraeger.invalid"
              }
            ]
          }
        ]
      }
    }
  ]
}
