{
  "resourceType": "Bundle",
  "id": "VSDMBundle-GKV-G789012344",
  "meta": {
    "profile": [
      "https://gematik.de/fhir/vsdm2/StructureDefinition/VSDMBundle|1.0.0"
    ],
    "lastUpdated": "2025-07-14T15:16:17.890+01:00"
  },
  "type": "collection",
  "timestamp": "2025-07-14T15:16:17.890+01:00",
  "entry": [
    {
      "fullUrl": "https://gematik.de/fhir/Patient/VSDMPatient-GKV-G789012344",
      "resource": {
        "resourceType": "Patient",
        "id": "VSDMPatient-GKV-G789012344",
        "meta": {
          "profile": [
            "https://gematik.de/fhir/vsdm2/StructureDefinition/VSDMPatient|1.0.0"
          ]
        },
        "identifier": [
          {
            "system": "http://fhir.de/sid/gkv/kvid-10",
            "value": "G789012344"
          }
        ],
        "name": [
          {
            "use": "official",
            "text": "Gabriele Edle von der Graugans",
            "family": "Edle von der Graugans",
            "_family": {
              "extension": [
                {
                  "url": "http://fhir.de/StructureDefinition/humanname-namenszusatz",
                  "valueString": "Edle"
                },
                {
                  "url": "http://hl7.org/fhir/StructureDefinition/humanname-own-name",
                  "valueString": "Graugans"
                },
                {
                  "url": "http://hl7.org/fhir/StructureDefinition/humanname-own-prefix",
                  "valueString": "von der"
                }
              ]
            },
            "given": [
              "Gabriele"
            ]
          }
        ],
        "address": [
          {
            "type": "physical",
            "line": [
              "Am Gänseweiher 66"
            ],
            "_line": [
              {
                "extension": [
                  {
                    "url": "http://hl7.org/fhir/StructureDefinition/iso21090-ADXP-houseNumber",
                    "valueString": "66"
                  },
                  {
                    "url": "http://hl7.org/fhir/StructureDefinition/iso21090-ADXP-streetName",
                    "valueString": "Am Gänseweiher"
                  }
                ]
              }
            ],
            "city": "Gießen",
            "postalCode": "35392",
            "country": "Deutschland",
            "_country": {
              "extension": [
                {
                  "url": "http://hl7.org/fhir/StructureDefinition/iso21090-codedString",
                  "valueCoding": {
                    "code": "DE",
                    "system": "urn:iso:std:iso:3166"
                  }
                },
                {
                  "url": "http://hl7.org/fhir/StructureDefinition/iso21090-codedString",
                  "valueCoding": {
                    "code": "D",
                    "system": "http://fhir.de/CodeSystem/deuev/anlage-8-laenderkennzeichen"
                  }
                }
              ]
            }
          }
        ],
        "birthDate": "1974-02-12",
        "gender": "female"
      }
    },
    {
      "fullUrl": "https://gematik.de/fhir/Coverage/VSDMCoverageGKV-G789012344",
      "resource": {
        "resourceType": "Coverage",
        "id": "VSDMCoverageGKV-G789012344",
        "meta": {
          "profile": [
            "https://gematik.de/fhir/vsdm2/StructureDefinition/VSDMCoverageGKV|1.0.0"
          ]
        },
        "type": {
          "coding": [
            {
              "code": "GKV",
              "system": "http://fhir.de/CodeSystem/versicherungsart-de-basis"
            }
          ]
        },
        "extension": [
          {
            "url": "http://fhir.de/StructureDefinition/gkv/wop",
            "valueCoding": {
              "system": "https://fhir.kbv.de/CodeSystem/KBV_CS_SFHIR_ITA_WOP",
              "code": "46",
              "display": "Hessen"
            }
          },
          {
            "url": "http://fhir.de/StructureDefinition/gkv/versichertenart",
            "valueCoding": {
              "code": "1",
              "system": "https://fhir.kbv.de/CodeSystem/KBV_CS_SFHIR_KBV_VERSICHERTENSTATUS",
              "display": "Mitglieder"
            }
          },
          {
            "url": "http://fhir.de/StructureDefinition/gkv/zuzahlungsstatus",
            "extension": [
              {
                "url": "status",
                "valueBoolean": true
              },
              {
                "url": "gueltigBis",
                "valueDate": "2026-12-31"
              }
            ]
          },
          {
            "url": "http://fhir.de/StructureDefinition/gkv/kostenerstattung",
            "extension": [
              {
                "url": "aerztlicheVersorgung",
                "valueBoolean": true
              },
              {
                "url": "zahnaerztlicheVersorgung",
                "valueBoolean": true
              },
              {
                "url": "stationaererBereich",
                "valueBoolean": true
              },
              {
                "url": "veranlassteLeistungen",
                "valueBoolean": true
              }
            ]
          },
          {
            "url": "http://fhir.de/StructureDefinition/gkv/ruhender-leistungsanspruch",
            "extension": [
              {
                "url": "art",
                "valueCoding": {
                  "code": "2",
                  "system": "https://gematik.de/fhir/vsdm2/CodeSystem/VSDMRuhenderLeistungsanspruchArtCS",
                  "display": "eingeschränkt"
                }
              },
              {
                "url": "dauer",
                "valuePeriod": {
                  "start": "2025-06-01",
                  "end": "2027-12-31"
                }
              }
            ]
          }
        ],
        "payor": [
          {
            "extension": [
              {
                "valueCoding": {
                  "system": "https://gematik.de/fhir/vsdm2/CodeSystem/VSDMKostentraegerRolleCS",
                  "code": "H",
                  "display": "Haupt-Kostenträger"
                },
                "url": "https://gematik.de/fhir/vsdm2/StructureDefinition/VSDMKostentraegerRolle"
              }
            ],
            "reference": "Organization/VSDMPayorOrganization-105413578"
          }
        ],
        "status": "active",
        "beneficiary": {
          "reference": "Patient/VSDMPatient-GKV-G789012344"
        },
        "period": {
          "start": "1974-02-12"
        }
      }
    },
    {
      "fullUrl": "https://gematik.de/fhir/Organization/VSDMPayorOrganization-105413578",
      "resource": {
        "resourceType": "Organization",
        "id": "VSDMPayorOrganization-105413578",
        "meta": {
          "profile": [
            "https://gematik.de/fhir/vsdm2/StructureDefinition/VSDMPayorOrganization|1.0.0"
          ]
        },
        "identifier": [
          {
            "system": "http://fhir.de/sid/arge-ik/iknr",
            "value": "105413578"
          }
        ],
        "address": [
          {
            "country": "Deutschland",
            "_country": {
              "extension": [
                {
                  "url": "http://hl7.org/fhir/StructureDefinition/iso21090-codedString",
                  "valueCoding": {
                    "code": "DE",
                    "system": "urn:iso:std:iso:3166"
                  }
                },
                {
                  "url": "http://hl7.org/fhir/StructureDefinition/iso21090-codedString",
                  "valueCoding": {
                    "code": "D",
                    "system": "http://fhir.de/CodeSystem/deuev/anlage-8-laenderkennzeichen"
                  }
                }
              ]
            }
          }
        ],
        "name": "Beispielkostenträger Gießen",
        "contact": [
          {
            "purpose": {
              "coding": [
                {
                  "code": "BILL",
                  "system": "http://terminology.hl7.org/CodeSystem/contactentity-type"
                }
              ],
              "text": "Kontakt für Abrechnungsfragen"
            },
            "telecom": [
              {
                "system": "phone",
                "value": "+4952116391643"
              },
              {
                "system": "email",
                "value": "contact@kostentraeger.invalid"
              }
            ]
          }
        ]
      }
    }
  ]
}
