{
  "resourceType": "Bundle",
  "id": "VSDMBundle-GKV-C345678908",
  "meta": {
    "profile": [
      "https://gematik.de/fhir/vsdm2/StructureDefinition/VSDMBundle|1.0.0"
    ],
    "lastUpdated": "2025-07-14T15:16:17.890+01:00"
  },
  "type": "collection",
  "timestamp": "2025-07-14T15:16:17.890+01:00",
  "entry": [
    {
      "fullUrl": "https://gematik.de/fhir/Patient/VSDMPatient-GKV-C345678908",
      "resource": {
        "resourceType": "Patient",
        "id": "VSDMPatient-GKV-C345678908",
        "meta": {
          "profile": [
            "https://gematik.de/fhir/vsdm2/StructureDefinition/VSDMPatient|1.0.0"
          ]
        },
        "identifier": [
          {
            "system": "http://fhir.de/sid/gkv/kvid-10",
            "value": "C345678908"
          }
        ],
        "name": [
          {
            "use": "official",
            "text": "Charlie Carolinataube",
            "family": "Carolinataube",
            "_family": {
              "extension": [
                {
                  "url": "http://hl7.org/fhir/StructureDefinition/humanname-own-name",
                  "valueString": "Carolinataube"
                }
              ]
            },
            "given": [
              "Charlie"
            ]
          }
        ],
        "address": [
          {
            "type": "physical",
            "line": [
              "Taubenweg 3c",
              "zweites Hinterhaus links"
            ],
            "_line": [
              {
                "extension": [
                  {
                    "url": "http://hl7.org/fhir/StructureDefinition/iso21090-ADXP-houseNumber",
                    "valueString": "3c"
                  },
                  {
                    "url": "http://hl7.org/fhir/StructureDefinition/iso21090-ADXP-streetName",
                    "valueString": "Taubenweg"
                  }
                ]
              },
              {
                "extension": [
                  {
                    "url": "http://hl7.org/fhir/StructureDefinition/iso21090-ADXP-additionalLocator",
                    "valueString": "Hinterhaus links"
                  }
                ]
              }
            ],
            "city": "Chemnitz",
            "postalCode": "09128",
            "country": "Deutschland",
            "_country": {
              "extension": [
                {
                  "url": "http://hl7.org/fhir/StructureDefinition/iso21090-codedString",
                  "valueCoding": {
                    "code": "DE",
                    "system": "urn:iso:std:iso:3166"
                  }
                },
                {
                  "url": "http://hl7.org/fhir/StructureDefinition/iso21090-codedString",
                  "valueCoding": {
                    "code": "D",
                    "system": "http://fhir.de/CodeSystem/deuev/anlage-8-laenderkennzeichen"
                  }
                }
              ]
            }
          }
        ],
        "birthDate": "1979-06-11",
        "gender": "other",
        "_gender": {
          "extension": [
            {
              "url": "http://fhir.de/StructureDefinition/gender-amtlich-de",
              "valueCoding": {
                "code": "D",
                "system": "http://fhir.de/CodeSystem/gender-amtlich-de",
                "display": "divers"
              }
            }
          ]
        }
      }
    },
    {
      "fullUrl": "https://gematik.de/fhir/Coverage/VSDMCoverageGKV-C345678908",
      "resource": {
        "resourceType": "Coverage",
        "id": "VSDMCoverageGKV-C345678908",
        "meta": {
          "profile": [
            "https://gematik.de/fhir/vsdm2/StructureDefinition/VSDMCoverageGKV|1.0.0"
          ]
        },
        "type": {
          "coding": [
            {
              "code": "GKV",
              "system": "http://fhir.de/CodeSystem/versicherungsart-de-basis"
            }
          ]
        },
        "extension": [
          {
            "url": "http://fhir.de/StructureDefinition/gkv/wop",
            "valueCoding": {
              "system": "https://fhir.kbv.de/CodeSystem/KBV_CS_SFHIR_ITA_WOP",
              "code": "98",
              "display": "Sachsen"
            }
          },
          {
            "url": "http://fhir.de/StructureDefinition/gkv/versichertenart",
            "valueCoding": {
              "code": "1",
              "system": "https://fhir.kbv.de/CodeSystem/KBV_CS_SFHIR_KBV_VERSICHERTENSTATUS",
              "display": "Mitglieder"
            }
          },
          {
            "url": "https://gematik.de/fhir/vsdm2/StructureDefinition/VSDMDMPTeilnahme",
            "extension": [
              {
                "url": "dmp",
                "valueCoding": {
                  "system": "https://fhir.kbv.de/CodeSystem/KBV_CS_SFHIR_KBV_DMP",
                  "code": "01",
                  "display": "DM2"
                }
              },
              {
                "url": "zeitraum",
                "valuePeriod": {
                  "start": "2001-01-01"
                }
              },
              {
                "url": "digitalesDMP",
                "valueBoolean": false
              }
            ]
          },
          {
            "url": "https://gematik.de/fhir/vsdm2/StructureDefinition/VSDMDMPTeilnahme",
            "extension": [
              {
                "url": "dmp",
                "valueCoding": {
                  "system": "https://fhir.kbv.de/CodeSystem/KBV_CS_SFHIR_KBV_DMP",
                  "code": "08",
                  "display": "Depression"
                }
              },
              {
                "url": "zeitraum",
                "valuePeriod": {
                  "start": "2020-01-01",
                  "end": "2023-12-31"
                }
              },
              {
                "url": "digitalesDMP",
                "valueBoolean": true
              }
            ]
          },
          {
            "url": "http://fhir.de/StructureDefinition/gkv/kostenerstattung",
            "extension": [
              {
                "url": "aerztlicheVersorgung",
                "valueBoolean": true
              },
              {
                "url": "zahnaerztlicheVersorgung",
                "valueBoolean": true
              },
              {
                "url": "stationaererBereich",
                "valueBoolean": true
              },
              {
                "url": "veranlassteLeistungen",
                "valueBoolean": true
              }
            ]
          }
        ],
        "payor": [
          {
            "extension": [
              {
                "valueCoding": {
                  "system": "https://gematik.de/fhir/vsdm2/CodeSystem/VSDMKostentraegerRolleCS",
                  "code": "H",
                  "display": "Haupt-Kostenträger"
                },
                "url": "https://gematik.de/fhir/vsdm2/StructureDefinition/VSDMKostentraegerRolle"
              }
            ],
            "reference": "Organization/VSDMPayorOrganization-107723372"
          }
        ],
        "status": "active",
        "beneficiary": {
          "reference": "Patient/VSDMPatient-GKV-C345678908"
        },
        "period": {
          "start": "1979-06-11",
          "end": "2027-01-01"
        }
      }
    },
    {
      "fullUrl": "https://gematik.de/fhir/Organization/VSDMPayorOrganization-107723372",
      "resource": {
        "resourceType": "Organization",
        "id": "VSDMPayorOrganization-107723372",
        "meta": {
          "profile": [
            "https://gematik.de/fhir/vsdm2/StructureDefinition/VSDMPayorOrganization|1.0.0"
          ]
        },
        "identifier": [
          {
            "system": "http://fhir.de/sid/arge-ik/iknr",
            "value": "107723372"
          }
        ],
        "address": [
          {
            "country": "Deutschland",
            "_country": {
              "extension": [
                {
                  "url": "http://hl7.org/fhir/StructureDefinition/iso21090-codedString",
                  "valueCoding": {
                    "code": "DE",
                    "system": "urn:iso:std:iso:3166"
                  }
                },
                {
                  "url": "http://hl7.org/fhir/StructureDefinition/iso21090-codedString",
                  "valueCoding": {
                    "code": "D",
                    "system": "http://fhir.de/CodeSystem/deuev/anlage-8-laenderkennzeichen"
                  }
                }
              ]
            }
          }
        ],
        "name": "Beispielkostenträger Chemnitz"
      }
    }
  ]
}
