{
  "resourceType": "Bundle",
  "id": "VSDMBundle-PKV-E567890127",
  "meta": {
    "profile": [
      "https://gematik.de/fhir/vsdm2/StructureDefinition/VSDMBundle|1.0.0"
    ],
    "lastUpdated": "2025-07-14T15:16:17.890+01:00"
  },
  "type": "collection",
  "timestamp": "2025-07-14T15:16:17.890+01:00",
  "entry": [
    {
      "fullUrl": "https://gematik.de/fhir/Patient/VSDMPatient-PKV-E567890127",
      "resource": {
        "resourceType": "Patient",
        "id": "VSDMPatient-PKV-E567890127",
        "meta": {
          "profile": [
            "https://gematik.de/fhir/vsdm2/StructureDefinition/VSDMPatient|1.0.0"
          ]
        },
        "name": [
          {
            "use": "official",
            "text": "Elke Freifrau an der Elster",
            "family": "Freifrau an der Elster",
            "_family": {
              "extension": [
                {
                  "url": "http://fhir.de/StructureDefinition/humanname-namenszusatz",
                  "valueString": "Freifrau"
                },
                {
                  "url": "http://hl7.org/fhir/StructureDefinition/humanname-own-name",
                  "valueString": "Elster"
                },
                {
                  "url": "http://hl7.org/fhir/StructureDefinition/humanname-own-prefix",
                  "valueString": "an der"
                }
              ]
            },
            "given": [
              "Elke"
            ]
          }
        ],
        "identifier": [
          {
            "system": "http://fhir.de/sid/gkv/kvid-10",
            "value": "E567890127"
          }
        ],
        "telecom": [
          {
            "system": "url",
            "value": "matrix:@e567890127:demo-ti-messenger"
          }
        ],
        "address": [
          {
            "type": "physical",
            "line": [
              "Elsterstraße 5"
            ],
            "_line": [
              {
                "extension": [
                  {
                    "url": "http://hl7.org/fhir/StructureDefinition/iso21090-ADXP-houseNumber",
                    "valueString": "5"
                  },
                  {
                    "url": "http://hl7.org/fhir/StructureDefinition/iso21090-ADXP-streetName",
                    "valueString": "Elsterstraße"
                  }
                ]
              }
            ],
            "city": "Erfurt",
            "postalCode": "99095",
            "country": "DE"
          },
          {
            "type": "postal",
            "line": [
              "Postfach 9821"
            ],
            "_line": [
              {
                "extension": [
                  {
                    "url": "http://hl7.org/fhir/StructureDefinition/iso21090-ADXP-postBox",
                    "valueString": "Postfach 9821"
                  }
                ]
              }
            ],
            "city": "Graz",
            "postalCode": "8055",
            "country": "AT"
          }
        ],
        "birthDate": "1992-11-13",
        "gender": "female"
      }
    },
    {
      "fullUrl": "https://gematik.de/fhir/Coverage/VSDMCoverage-PKV-E567890127",
      "resource": {
        "resourceType": "Coverage",
        "id": "VSDMCoverage-PKV-E567890127",
        "meta": {
          "profile": [
            "https://gematik.de/fhir/vsdm2/StructureDefinition/VSDMCoverage|1.0.0"
          ]
        },
        "extension": [
          {
            "url": "https://gematik.de/fhir/vsdm2/StructureDefinition/VSDMVersichertenart",
            "valueCoding": {
              "code": "VN",
              "system": "https://gematik.de/fhir/vsdm2/CodeSystem/VSDMVersichertenartPKVCS",
              "display": "Versicherungsnehmer"
            }
          },
          {
            "url": "https://gematik.de/fhir/vsdm2/StructureDefinition/VSDMKrankenhausleistungenPKV",
            "extension": [
              {
                "url": "allgemein",
                "valueUnsignedInt": 100
              },
              {
                "url": "zweibett",
                "valueUnsignedInt": 100
              },
              {
                "url": "einbett",
                "valueUnsignedInt": 100
              },
              {
                "url": "wahlarzt",
                "valueBoolean": false
              },
              {
                "url": "belegarzt",
                "valueBoolean": false
              }
            ]
          },
          {
            "valueCoding": {
              "system": "https://gematik.de/fhir/vsdm2/CodeSystem/VSDMSozialtarifPKVCS",
              "code": "S",
              "display": "Standardtarif"
            },
            "url": "https://gematik.de/fhir/vsdm2/StructureDefinition/VSDMSozialtarifPKV"
          }
        ],
        "payor": [
          {
            "extension": [
              {
                "valueCoding": {
                  "system": "https://gematik.de/fhir/vsdm2/CodeSystem/VSDMKostentraegerRolleCS",
                  "code": "H",
                  "display": "Haupt-Kostenträger"
                },
                "url": "https://gematik.de/fhir/vsdm2/StructureDefinition/VSDMKostentraegerRolle"
              }
            ],
            "reference": "Organization/VSDMPayorOrganization-168156788"
          }
        ],
        "status": "active",
        "type": {
          "coding": [
            {
              "code": "PKV",
              "system": "http://fhir.de/CodeSystem/versicherungsart-de-basis"
            }
          ]
        },
        "beneficiary": {
          "reference": "Patient/VSDMPatient-PKV-E567890127"
        },
        "period": {
          "start": "2020-01-01"
        }
      }
    },
    {
      "fullUrl": "https://gematik.de/fhir/Organization/VSDMPayorOrganization-168156788",
      "resource": {
        "resourceType": "Organization",
        "id": "VSDMPayorOrganization-168156788",
        "meta": {
          "profile": [
            "https://gematik.de/fhir/vsdm2/StructureDefinition/VSDMPayorOrganization|1.0.0"
          ]
        },
        "identifier": [
          {
            "system": "http://fhir.de/sid/arge-ik/iknr",
            "value": "168156788"
          }
        ],
        "name": "Privatversicherung Jupiter",
        "address": [
          {
            "country": "DE"
          }
        ],
        "contact": [
          {
            "purpose": {
              "coding": [
                {
                  "code": "BILL",
                  "system": "http://terminology.hl7.org/CodeSystem/contactentity-type"
                }
              ],
              "text": "Kontakt für Abrechnungsfragen"
            },
            "telecom": [
              {
                "system": "phone",
                "value": "+4952116391643"
              },
              {
                "system": "email",
                "value": "contact@kostentraeger.invalid"
              }
            ]
          }
        ]
      }
    }
  ]
}
