{
  "resourceType": "Bundle",
  "id": "9b6ac30d-246d-4eab-af83-544564792089",
  "meta": {
    "profile": [
      "https://gematik.de/fhir/vsdm2/StructureDefinition/VSDMBundle"
    ]
  },
  "type": "document",
  "identifier": {
    "system": "urn:ietf:rfc:3986",
    "value": "urn:uuid:9b6ac30d-246d-4eab-af83-544564792089"
  },
  "signature": {
    "sigFormat": "application/pkcs7-mime",
    "who": {
      "identifier": {
        "system": "http://fhir.de/sid/arge-ik/iknr",
        "value": "12345678"
      }
    },
    "type": [
      {
        "system": "urn:iso-astm:E1762-95:2013",
        "code": "1.2.840.10065.1.12.1.7",
        "display": "Consent Signature"
      }
    ],
    "when": "2023-11-03T12:02:23.157+01:00",
    "data": "dGhpcyBibG9iIGlzIHNuaXBwZWQ="
  },
  "timestamp": "2023-11-03T12:02:23.157+01:00",
  "entry": [
    {
      "fullUrl": "https://gematik.de/fhir/Composition/c624cf47-e235-4624-af71-0a09dc9254dc",
      "resource": {
        "resourceType": "Composition",
        "id": "c624cf47-e235-4624-af71-0a09dc9254dc",
        "meta": {
          "profile": [
            "https://gematik.de/fhir/vsdm2/StructureDefinition/VSDMComposition"
          ]
        },
        "status": "final",
        "author": [
          {
            "identifier": {
              "system": "http://fhir.de/sid/arge-ik/iknr",
              "value": "12345678"
            }
          }
        ],
        "type": {
          "coding": [
            {
              "code": "not-applicable",
              "system": "http://terminology.hl7.org/CodeSystem/data-absent-reason"
            }
          ]
        },
        "date": "2023-11-03T12:02:23.157+01:00",
        "title": "VSDM 2 data",
        "section": [
          {
            "entry": [
              {
                "reference": "Patient/437f2555-2396-4c64-a656-e9553161ca3c"
              }
            ]
          },
          {
            "entry": [
              {
                "reference": "Coverage/2d4da53a-413a-48fe-b908-2e67b5761523"
              }
            ]
          }
        ]
      }
    },
    {
      "fullUrl": "https://gematik.de/fhir/Patient/437f2555-2396-4c64-a656-e9553161ca3c",
      "resource": {
        "resourceType": "Patient",
        "id": "437f2555-2396-4c64-a656-e9553161ca3c",
        "meta": {
          "profile": [
            "https://gematik.de/fhir/vsdm2/StructureDefinition/VSDMPatient"
          ]
        },
        "identifier": [
          {
            "type": {
              "coding": [
                {
                  "system": "http://fhir.de/CodeSystem/identifier-type-de-basis",
                  "code": "GKV"
                }
              ]
            },
            "system": "http://fhir.de/sid/gkv/kvid-10",
            "value": "T024791905"
          }
        ],
        "name": [
          {
            "use": "official",
            "family": "Königstein",
            "_family": {
              "extension": [
                {
                  "url": "http://hl7.org/fhir/StructureDefinition/humanname-own-name",
                  "valueString": "Königstein"
                }
              ]
            },
            "given": [
              "Ludger"
            ]
          }
        ],
        "address": [
          {
            "line": [
              "Blumenweg 14"
            ],
            "_line": [
              {
                "extension": [
                  {
                    "url": "http://hl7.org/fhir/StructureDefinition/iso21090-ADXP-houseNumber",
                    "valueString": "14"
                  },
                  {
                    "url": "http://hl7.org/fhir/StructureDefinition/iso21090-ADXP-streetName",
                    "valueString": "Blumenweg"
                  }
                ]
              }
            ],
            "type": "both",
            "city": "Esens",
            "postalCode": "26427",
            "country": "D"
          }
        ],
        "birthDate": "1935-06-22",
        "telecom": [
          {
            "system": "url",
            "value": "matrix:@T024791905:aok-nord.de"
          }
        ],
        "photo": [
          {
            "contentType": "image/gif",
            "data": ""
          }
        ]
      }
    },
    {
      "fullUrl": "https://gematik.de/fhir/Coverage/2d4da53a-413a-48fe-b908-2e67b5761523",
      "resource": {
        "resourceType": "Coverage",
        "id": "2d4da53a-413a-48fe-b908-2e67b5761523",
        "meta": {
          "profile": [
            "https://gematik.de/fhir/vsdm2/StructureDefinition/VSDMCoverage"
          ]
        },
        "status": "active",
        "payor": [
          {
            "identifier": {
              "system": "http://fhir.de/sid/arge-ik/iknr",
              "value": "12345678"
            },
            "display": "Test GKV Krankenkasse"
          }
        ],
        "extension": [
          {
            "url": "https://gematik.de/fhir/vsdm2/StructureDefinition/VSDMFestzuschusshoeheEX",
            "valueCoding": {
              "code": "1",
              "system": "https://gematik.de/fhir/vsdm2/CodeSystem/VSDMFestzuschusshoeheCS",
              "display": "70 % / fünf Jahre durchgehend"
            }
          }
        ],
        "type": {
          "coding": [
            {
              "system": "http://fhir.de/CodeSystem/versicherungsart-de-basis",
              "code": "GKV",
              "display": "gesetzliche Krankenversicherung"
            }
          ]
        },
        "period": {
          "start": "2022-04-01",
          "end": "2027-07-31"
        },
        "beneficiary": {
          "reference": "Patient/437f2555-2396-4c64-a656-e9553161ca3c"
        }
      }
    }
  ]
}
