{
  "resourceType": "Bundle",
  "id": "VSDMBundle-PKV-F678901231",
  "meta": {
    "profile": [
      "https://gematik.de/fhir/vsdm2/StructureDefinition/VSDMBundle|1.0.0"
    ],
    "lastUpdated": "2025-07-14T15:16:17.890+01:00"
  },
  "type": "collection",
  "timestamp": "2025-07-14T15:16:17.890+01:00",
  "entry": [
    {
      "fullUrl": "https://gematik.de/fhir/Patient/VSDMPatient-PKV-F678901231",
      "resource": {
        "resourceType": "Patient",
        "id": "VSDMPatient-PKV-F678901231",
        "meta": {
          "profile": [
            "https://gematik.de/fhir/vsdm2/StructureDefinition/VSDMPatient|1.0.0"
          ]
        },
        "identifier": [
          {
            "system": "http://fhir.de/sid/gkv/kvid-10",
            "value": "F678901231"
          }
        ],
        "name": [
          {
            "use": "official",
            "prefix": [
              "Prof. Dr. med."
            ],
            "_prefix": [
              {
                "extension": [
                  {
                    "valueCode": "AC",
                    "url": "http://hl7.org/fhir/StructureDefinition/iso21090-EN-qualifier"
                  }
                ]
              }
            ],
            "text": "Prof. Dr. med. Frank Florian von Fasan",
            "family": "von Fasan",
            "_family": {
              "extension": [
                {
                  "url": "http://hl7.org/fhir/StructureDefinition/humanname-own-name",
                  "valueString": "Fasan"
                },
                {
                  "url": "http://hl7.org/fhir/StructureDefinition/humanname-own-prefix",
                  "valueString": "von"
                }
              ]
            },
            "given": [
              "Frank Florian"
            ]
          }
        ],
        "address": [
          {
            "type": "physical",
            "line": [
              "Fasanenallee 50"
            ],
            "_line": [
              {
                "extension": [
                  {
                    "url": "http://hl7.org/fhir/StructureDefinition/iso21090-ADXP-houseNumber",
                    "valueString": "50"
                  },
                  {
                    "url": "http://hl7.org/fhir/StructureDefinition/iso21090-ADXP-streetName",
                    "valueString": "Fasanenallee"
                  }
                ]
              }
            ],
            "city": "Bern",
            "postalCode": "3013",
            "country": "Schweiz",
            "_country": {
              "extension": [
                {
                  "url": "http://hl7.org/fhir/StructureDefinition/iso21090-codedString",
                  "valueCoding": {
                    "code": "CH",
                    "system": "urn:iso:std:iso:3166"
                  }
                }
              ]
            }
          }
        ],
        "birthDate": "1983-01-19",
        "gender": "male"
      }
    },
    {
      "fullUrl": "https://gematik.de/fhir/Coverage/VSDMCoveragePKV-F678901231",
      "resource": {
        "resourceType": "Coverage",
        "id": "VSDMCoveragePKV-F678901231",
        "meta": {
          "profile": [
            "https://gematik.de/fhir/vsdm2/StructureDefinition/VSDMCoveragePKV|1.0.0"
          ]
        },
        "type": {
          "coding": [
            {
              "code": "PKV",
              "system": "http://fhir.de/CodeSystem/versicherungsart-de-basis"
            }
          ]
        },
        "extension": [
          {
            "url": "https://gematik.de/fhir/vsdm2/StructureDefinition/VSDMVersichertenartPKV",
            "valueCoding": {
              "code": "VN",
              "system": "https://gematik.de/fhir/vsdm2/CodeSystem/VSDMVersichertenartPKVCS",
              "display": "Versicherungsnehmer"
            }
          },
          {
            "url": "https://gematik.de/fhir/vsdm2/StructureDefinition/VSDMKrankenhausleistungenPKV",
            "extension": [
              {
                "url": "allgemein",
                "valueUnsignedInt": 100
              },
              {
                "url": "zweibett",
                "valueUnsignedInt": 0
              },
              {
                "url": "einbett",
                "valueUnsignedInt": 0
              },
              {
                "url": "zweibettEinbettDifferenz",
                "valueUnsignedInt": 0
              },
              {
                "url": "wahlarzt",
                "valueBoolean": false
              },
              {
                "url": "belegarzt",
                "valueBoolean": false
              }
            ]
          },
          {
            "valueCoding": {
              "system": "https://gematik.de/fhir/vsdm2/CodeSystem/VSDMSozialtarifPKVCS",
              "code": "N",
              "display": "Notlagentarif"
            },
            "url": "https://gematik.de/fhir/vsdm2/StructureDefinition/VSDMSozialtarifPKV"
          }
        ],
        "status": "active",
        "beneficiary": {
          "reference": "Patient/VSDMPatient-PKV-F678901231"
        },
        "period": {
          "start": "2020-01-01"
        },
        "payor": [
          {
            "reference": "Organization/VSDMPayorOrganization-168167894"
          }
        ]
      }
    },
    {
      "fullUrl": "https://gematik.de/fhir/Organization/VSDMPayorOrganization-168167894",
      "resource": {
        "resourceType": "Organization",
        "id": "VSDMPayorOrganization-168167894",
        "meta": {
          "profile": [
            "https://gematik.de/fhir/vsdm2/StructureDefinition/VSDMPayorOrganization|1.0.0"
          ]
        },
        "identifier": [
          {
            "system": "http://fhir.de/sid/arge-ik/iknr",
            "value": "168167894"
          }
        ],
        "address": [
          {
            "country": "Deutschland",
            "_country": {
              "extension": [
                {
                  "url": "http://hl7.org/fhir/StructureDefinition/iso21090-codedString",
                  "valueCoding": {
                    "code": "DE",
                    "system": "urn:iso:std:iso:3166"
                  }
                }
              ]
            }
          }
        ],
        "name": "Privatversicherung Mars"
      }
    }
  ]
}
