{
  "resourceType": "Bundle",
  "id": "VSDMBundle-GKV-F678901231",
  "meta": {
    "profile": [
      "https://gematik.de/fhir/vsdm2/StructureDefinition/VSDMBundle|1.0.0"
    ],
    "lastUpdated": "2025-07-14T15:16:17.890+01:00"
  },
  "type": "collection",
  "timestamp": "2025-07-14T15:16:17.890+01:00",
  "entry": [
    {
      "fullUrl": "https://gematik.de/fhir/Patient/VSDMPatient-GKV-F678901231",
      "resource": {
        "resourceType": "Patient",
        "id": "VSDMPatient-GKV-F678901231",
        "meta": {
          "profile": [
            "https://gematik.de/fhir/vsdm2/StructureDefinition/VSDMPatient|1.0.0"
          ]
        },
        "identifier": [
          {
            "system": "http://fhir.de/sid/gkv/kvid-10",
            "value": "F678901231"
          }
        ],
        "name": [
          {
            "use": "official",
            "prefix": [
              "Prof. Dr. med."
            ],
            "_prefix": [
              {
                "extension": [
                  {
                    "valueCode": "AC",
                    "url": "http://hl7.org/fhir/StructureDefinition/iso21090-EN-qualifier"
                  }
                ]
              }
            ],
            "text": "Prof. Dr. med. Frank Florian von Fasan",
            "family": "von Fasan",
            "_family": {
              "extension": [
                {
                  "url": "http://hl7.org/fhir/StructureDefinition/humanname-own-name",
                  "valueString": "Fasan"
                },
                {
                  "url": "http://hl7.org/fhir/StructureDefinition/humanname-own-prefix",
                  "valueString": "von"
                }
              ]
            },
            "given": [
              "Frank Florian"
            ]
          }
        ],
        "address": [
          {
            "type": "physical",
            "line": [
              "Fasanenallee 50"
            ],
            "_line": [
              {
                "extension": [
                  {
                    "url": "http://hl7.org/fhir/StructureDefinition/iso21090-ADXP-houseNumber",
                    "valueString": "50"
                  },
                  {
                    "url": "http://hl7.org/fhir/StructureDefinition/iso21090-ADXP-streetName",
                    "valueString": "Fasanenallee"
                  }
                ]
              }
            ],
            "city": "Bern",
            "postalCode": "3013",
            "country": "Schweiz",
            "_country": {
              "extension": [
                {
                  "url": "http://hl7.org/fhir/StructureDefinition/iso21090-codedString",
                  "valueCoding": {
                    "code": "CH",
                    "system": "urn:iso:std:iso:3166"
                  }
                },
                {
                  "url": "http://hl7.org/fhir/StructureDefinition/iso21090-codedString",
                  "valueCoding": {
                    "code": "CH",
                    "system": "http://fhir.de/CodeSystem/deuev/anlage-8-laenderkennzeichen"
                  }
                }
              ]
            }
          }
        ],
        "birthDate": "1983-01-19",
        "gender": "male"
      }
    },
    {
      "fullUrl": "https://gematik.de/fhir/Coverage/VSDMCoverageGKV-F678901231",
      "resource": {
        "resourceType": "Coverage",
        "id": "VSDMCoverageGKV-F678901231",
        "meta": {
          "profile": [
            "https://gematik.de/fhir/vsdm2/StructureDefinition/VSDMCoverageGKV|1.0.0"
          ]
        },
        "type": {
          "coding": [
            {
              "code": "GKV",
              "system": "http://fhir.de/CodeSystem/versicherungsart-de-basis"
            }
          ]
        },
        "extension": [
          {
            "url": "http://fhir.de/StructureDefinition/gkv/wop",
            "valueCoding": {
              "system": "https://fhir.kbv.de/CodeSystem/KBV_CS_SFHIR_ITA_WOP",
              "code": "52",
              "display": "Baden-W체rttemberg"
            }
          },
          {
            "url": "http://fhir.de/StructureDefinition/gkv/versichertenart",
            "valueCoding": {
              "code": "3",
              "system": "https://fhir.kbv.de/CodeSystem/KBV_CS_SFHIR_KBV_VERSICHERTENSTATUS",
              "display": "Familienangehoerige"
            }
          },
          {
            "valueCoding": {
              "system": "https://fhir.kbv.de/CodeSystem/KBV_CS_SFHIR_KBV_PERSONENGRUPPE",
              "code": "08",
              "display": "SVA2"
            },
            "url": "http://fhir.de/StructureDefinition/gkv/besondere-personengruppe"
          },
          {
            "url": "http://fhir.de/StructureDefinition/gkv/zuzahlungsstatus",
            "extension": [
              {
                "url": "status",
                "valueBoolean": true
              },
              {
                "url": "gueltigBis",
                "valueDate": "2026-09-30"
              }
            ]
          },
          {
            "url": "http://fhir.de/StructureDefinition/gkv/ruhender-leistungsanspruch",
            "extension": [
              {
                "url": "art",
                "valueCoding": {
                  "code": "1",
                  "system": "https://gematik.de/fhir/vsdm2/CodeSystem/VSDMRuhenderLeistungsanspruchArtCS",
                  "display": "vollst채ndig"
                }
              },
              {
                "url": "dauer",
                "valuePeriod": {
                  "start": "2025-01-01"
                }
              }
            ]
          }
        ],
        "payor": [
          {
            "extension": [
              {
                "valueCoding": {
                  "system": "https://gematik.de/fhir/vsdm2/CodeSystem/VSDMKostentraegerRolleCS",
                  "code": "H",
                  "display": "Haupt-Kostentr채ger"
                },
                "url": "https://gematik.de/fhir/vsdm2/StructureDefinition/VSDMKostentraegerRolle"
              }
            ],
            "reference": "Organization/VSDMPayorOrganization-107403308"
          }
        ],
        "status": "active",
        "beneficiary": {
          "reference": "Patient/VSDMPatient-GKV-F678901231"
        },
        "period": {
          "start": "1992-12-01",
          "end": "2027-06-30"
        }
      }
    },
    {
      "fullUrl": "https://gematik.de/fhir/Organization/VSDMPayorOrganization-107403308",
      "resource": {
        "resourceType": "Organization",
        "id": "VSDMPayorOrganization-107403308",
        "meta": {
          "profile": [
            "https://gematik.de/fhir/vsdm2/StructureDefinition/VSDMPayorOrganization|1.0.0"
          ]
        },
        "identifier": [
          {
            "system": "http://fhir.de/sid/arge-ik/iknr",
            "value": "107403308"
          }
        ],
        "address": [
          {
            "country": "Deutschland",
            "_country": {
              "extension": [
                {
                  "url": "http://hl7.org/fhir/StructureDefinition/iso21090-codedString",
                  "valueCoding": {
                    "code": "DE",
                    "system": "urn:iso:std:iso:3166"
                  }
                },
                {
                  "url": "http://hl7.org/fhir/StructureDefinition/iso21090-codedString",
                  "valueCoding": {
                    "code": "D",
                    "system": "http://fhir.de/CodeSystem/deuev/anlage-8-laenderkennzeichen"
                  }
                }
              ]
            }
          }
        ],
        "name": "Beispielkostentr채ger Freiburg"
      }
    }
  ]
}
