{
  "resourceType": "Bundle",
  "id": "VSDMBundle-PKV-B234567895",
  "meta": {
    "profile": [
      "https://gematik.de/fhir/vsdm2/StructureDefinition/VSDMBundle|1.0.0"
    ],
    "lastUpdated": "2025-07-14T15:16:17.890+01:00"
  },
  "type": "collection",
  "timestamp": "2025-07-14T15:16:17.890+01:00",
  "entry": [
    {
      "fullUrl": "https://gematik.de/fhir/Patient/VSDMPatient-PKV-B234567895",
      "resource": {
        "resourceType": "Patient",
        "id": "VSDMPatient-PKV-B234567895",
        "meta": {
          "profile": [
            "https://gematik.de/fhir/vsdm2/StructureDefinition/VSDMPatient|1.0.0"
          ]
        },
        "name": [
          {
            "use": "official",
            "prefix": [
              "Dr. med."
            ],
            "_prefix": [
              {
                "extension": [
                  {
                    "valueCode": "AC",
                    "url": "http://hl7.org/fhir/StructureDefinition/iso21090-EN-qualifier"
                  }
                ]
              }
            ],
            "text": "Dr. med. Bernd Benjamin Graf von und zu Buntspecht",
            "family": "Graf von und zu Buntspecht",
            "_family": {
              "extension": [
                {
                  "url": "http://fhir.de/StructureDefinition/humanname-namenszusatz",
                  "valueString": "Graf"
                },
                {
                  "url": "http://hl7.org/fhir/StructureDefinition/humanname-own-name",
                  "valueString": "Buntspecht"
                },
                {
                  "url": "http://hl7.org/fhir/StructureDefinition/humanname-own-prefix",
                  "valueString": "von und zu"
                }
              ]
            },
            "given": [
              "Bernd Benjamin"
            ]
          }
        ],
        "identifier": [
          {
            "system": "http://fhir.de/sid/gkv/kvid-10",
            "value": "B234567895"
          }
        ],
        "telecom": [
          {
            "system": "url",
            "value": "matrix:@b234567895:demo-ti-messenger"
          }
        ],
        "address": [
          {
            "type": "physical",
            "line": [
              "Buntspechtallee 2A"
            ],
            "_line": [
              {
                "extension": [
                  {
                    "url": "http://hl7.org/fhir/StructureDefinition/iso21090-ADXP-houseNumber",
                    "valueString": "2a"
                  },
                  {
                    "url": "http://hl7.org/fhir/StructureDefinition/iso21090-ADXP-streetName",
                    "valueString": "Buntspechtallee"
                  }
                ]
              }
            ],
            "city": "Bremen",
            "postalCode": "28211",
            "country": "Deutschland",
            "_country": {
              "extension": [
                {
                  "url": "http://hl7.org/fhir/StructureDefinition/iso21090-codedString",
                  "valueCoding": {
                    "code": "DE",
                    "system": "urn:iso:std:iso:3166"
                  }
                }
              ]
            }
          }
        ],
        "birthDate": "1988-06-22",
        "gender": "male"
      }
    },
    {
      "fullUrl": "https://gematik.de/fhir/Coverage/VSDMCoverage-PKV-B234567895",
      "resource": {
        "resourceType": "Coverage",
        "id": "VSDMCoverage-PKV-B234567895",
        "meta": {
          "profile": [
            "https://gematik.de/fhir/vsdm2/StructureDefinition/VSDMCoverage|1.0.0"
          ]
        },
        "extension": [
          {
            "url": "https://gematik.de/fhir/vsdm2/StructureDefinition/VSDMVersichertenart",
            "valueCoding": {
              "code": "VN",
              "system": "https://gematik.de/fhir/vsdm2/CodeSystem/VSDMVersichertenartPKVCS",
              "display": "Versicherungsnehmer"
            }
          },
          {
            "url": "https://gematik.de/fhir/vsdm2/StructureDefinition/VSDMKrankenhausleistungenPKV",
            "extension": [
              {
                "url": "allgemein",
                "valueUnsignedInt": 100
              },
              {
                "url": "zweibett",
                "valueUnsignedInt": 100
              },
              {
                "url": "zweibettEinbettDifferenz",
                "valueUnsignedInt": 25
              },
              {
                "url": "wahlarzt",
                "valueUnsignedInt": 100
              },
              {
                "url": "belegarzt",
                "valueUnsignedInt": 100
              }
            ]
          }
        ],
        "payor": [
          {
            "extension": [
              {
                "valueCoding": {
                  "system": "https://gematik.de/fhir/vsdm2/CodeSystem/VSDMKostentraegerRolleCS",
                  "code": "H",
                  "display": "Haupt-Kostenträger"
                },
                "url": "https://gematik.de/fhir/vsdm2/StructureDefinition/VSDMKostentraegerRolle"
              }
            ],
            "reference": "Organization/VSDMPayorOrganization-168123458"
          }
        ],
        "status": "active",
        "type": {
          "coding": [
            {
              "code": "PKV",
              "system": "http://fhir.de/CodeSystem/versicherungsart-de-basis"
            }
          ]
        },
        "beneficiary": {
          "reference": "Patient/VSDMPatient-PKV-B234567895"
        },
        "period": {
          "start": "1980-01-01",
          "end": "2025-12-31"
        }
      }
    },
    {
      "fullUrl": "https://gematik.de/fhir/Organization/VSDMPayorOrganization-168123458",
      "resource": {
        "resourceType": "Organization",
        "id": "VSDMPayorOrganization-168123458",
        "meta": {
          "profile": [
            "https://gematik.de/fhir/vsdm2/StructureDefinition/VSDMPayorOrganization|1.0.0"
          ]
        },
        "identifier": [
          {
            "system": "http://fhir.de/sid/arge-ik/iknr",
            "value": "168123458"
          }
        ],
        "address": [
          {
            "country": "Deutschland",
            "_country": {
              "extension": [
                {
                  "url": "http://hl7.org/fhir/StructureDefinition/iso21090-codedString",
                  "valueCoding": {
                    "code": "DE",
                    "system": "urn:iso:std:iso:3166"
                  }
                }
              ]
            }
          }
        ],
        "name": "Privatversicherung Neptun"
      }
    }
  ]
}
