{
  "resourceType": "Bundle",
  "id": "VSDMBundle-O567890128",
  "meta": {
    "profile": [
      "https://gematik.de/fhir/vsdm2/StructureDefinition/VSDMBundle|1.0.0"
    ]
  },
  "type": "document",
  "identifier": {
    "system": "urn:ietf:rfc:3986",
    "value": "urn:uuid:a6def0d3-cc4a-4cfa-ae8e-271b592b7dac"
  },
  "timestamp": "2025-07-14T15:16:17.890+01:00",
  "entry": [
    {
      "fullUrl": "https://gematik.de/fhir/Composition/da3ea255-1ae0-4fde-ad72-6f7052d3698d",
      "resource": {
        "resourceType": "Composition",
        "id": "da3ea255-1ae0-4fde-ad72-6f7052d3698d",
        "meta": {
          "profile": [
            "https://gematik.de/fhir/vsdm2/StructureDefinition/VSDMComposition|1.0.0"
          ]
        },
        "status": "final",
        "type": {
          "coding": [
            {
              "code": "55188-7",
              "system": "http://loinc.org",
              "display": "Patient data Document"
            }
          ]
        },
        "author": [
          {
            "identifier": {
              "system": "http://fhir.de/sid/arge-ik/iknr",
              "value": "107668422"
            }
          }
        ],
        "date": "2025-07-14T05:06:07.890+01:00",
        "title": "VSDM 2.0-Daten O567890128 Ortolan, Oliver",
        "section": [
          {
            "entry": [
              {
                "reference": "Patient/VSDMPatient-O567890128"
              }
            ]
          },
          {
            "entry": [
              {
                "reference": "Coverage/VSDMCoverage-O567890128"
              }
            ]
          },
          {
            "entry": [
              {
                "reference": "Organization/VSDMPayorOrganization-107668422"
              }
            ]
          }
        ]
      }
    },
    {
      "fullUrl": "https://gematik.de/fhir/Patient/VSDMPatient-O567890128",
      "resource": {
        "resourceType": "Patient",
        "id": "VSDMPatient-O567890128",
        "meta": {
          "profile": [
            "https://gematik.de/fhir/vsdm2/StructureDefinition/VSDMPatient|1.0.0"
          ]
        },
        "name": [
          {
            "use": "official",
            "text": "Oliver Ortolan",
            "family": "Ortolan",
            "_family": {
              "extension": [
                {
                  "url": "http://hl7.org/fhir/StructureDefinition/humanname-own-name",
                  "valueString": "Ortolan"
                }
              ]
            },
            "given": [
              "Oliver"
            ]
          }
        ],
        "identifier": [
          {
            "system": "http://fhir.de/sid/gkv/kvid-10",
            "value": "O567890128"
          }
        ],
        "address": [
          {
            "type": "physical",
            "line": [
              "Gartenammerstraße 15",
              "Vorderhaus"
            ],
            "_line": [
              {
                "extension": [
                  {
                    "url": "http://hl7.org/fhir/StructureDefinition/iso21090-ADXP-houseNumber",
                    "valueString": "15"
                  },
                  {
                    "url": "http://hl7.org/fhir/StructureDefinition/iso21090-ADXP-streetName",
                    "valueString": "Gartenammerstraße"
                  }
                ]
              },
              {
                "extension": [
                  {
                    "url": "http://hl7.org/fhir/StructureDefinition/iso21090-ADXP-additionalLocator",
                    "valueString": "Vorderhaus"
                  }
                ]
              }
            ],
            "city": "Offenburg",
            "postalCode": "77654",
            "country": "DE",
            "_country": {
              "extension": [
                {
                  "url": "https://gematik.de/fhir/vsdm2/StructureDefinition/VSDMLaenderkennzeichen",
                  "valueCoding": {
                    "system": "http://fhir.de/CodeSystem/deuev/anlage-8-laenderkennzeichen",
                    "code": "D",
                    "display": "Deutschland"
                  }
                }
              ]
            }
          }
        ],
        "birthDate": "2009-06-08",
        "gender": "male"
      }
    },
    {
      "fullUrl": "https://gematik.de/fhir/Coverage/VSDMCoverage-O567890128",
      "resource": {
        "resourceType": "Coverage",
        "id": "VSDMCoverage-O567890128",
        "meta": {
          "profile": [
            "https://gematik.de/fhir/vsdm2/StructureDefinition/VSDMCoverage|1.0.0"
          ]
        },
        "extension": [
          {
            "url": "http://fhir.de/StructureDefinition/gkv/wop",
            "valueCoding": {
              "system": "https://fhir.kbv.de/CodeSystem/KBV_CS_SFHIR_ITA_WOP",
              "code": "52",
              "display": "Baden-Württemberg"
            }
          },
          {
            "url": "http://fhir.de/StructureDefinition/gkv/versichertenart",
            "valueCoding": {
              "code": "3",
              "system": "https://fhir.kbv.de/CodeSystem/KBV_CS_SFHIR_KBV_VERSICHERTENSTATUS",
              "display": "Familienversicherter"
            }
          },
          {
            "url": "http://fhir.de/StructureDefinition/gkv/zuzahlungsstatus",
            "extension": [
              {
                "url": "status",
                "valueBoolean": true
              },
              {
                "url": "gueltigBis",
                "valueDate": "2027-06-09"
              }
            ]
          }
        ],
        "payor": [
          {
            "extension": [
              {
                "valueCoding": {
                  "system": "https://gematik.de/fhir/vsdm2/CodeSystem/VSDMKostentraegerRolleCS",
                  "code": "H",
                  "display": "Haupt-Kostenträger"
                },
                "url": "https://gematik.de/fhir/vsdm2/StructureDefinition/VSDMKostentraegerRolle"
              }
            ],
            "reference": "Organization/VSDMPayorOrganization-107668422"
          }
        ],
        "status": "active",
        "type": {
          "coding": [
            {
              "code": "GKV"
            }
          ]
        },
        "beneficiary": {
          "reference": "Patient/VSDMPatient-O567890128"
        },
        "period": {
          "start": "2009-06-08"
        }
      }
    },
    {
      "fullUrl": "https://gematik.de/fhir/Organization/VSDMPayorOrganization-107668422",
      "resource": {
        "resourceType": "Organization",
        "id": "VSDMPayorOrganization-107668422",
        "meta": {
          "profile": [
            "https://gematik.de/fhir/vsdm2/StructureDefinition/VSDMPayorOrganization|1.0.0"
          ]
        },
        "identifier": [
          {
            "system": "http://fhir.de/sid/arge-ik/iknr",
            "value": "107668422"
          }
        ],
        "address": [
          {
            "country": "DE",
            "_country": {
              "extension": [
                {
                  "url": "https://gematik.de/fhir/vsdm2/StructureDefinition/VSDMLaenderkennzeichen",
                  "valueCoding": {
                    "system": "http://fhir.de/CodeSystem/deuev/anlage-8-laenderkennzeichen",
                    "code": "D",
                    "display": "Deutschland"
                  }
                }
              ]
            }
          }
        ],
        "name": "Beispielkostenträger Offenburg",
        "contact": [
          {
            "purpose": {
              "coding": [
                {
                  "code": "BILL",
                  "system": "http://terminology.hl7.org/CodeSystem/contactentity-type"
                }
              ],
              "text": "Kontakt für Abrechnungsfragen"
            },
            "telecom": [
              {
                "system": "phone",
                "value": "+4952116391643"
              },
              {
                "system": "email",
                "value": "contact@kostentraeger.invalid"
              }
            ]
          }
        ]
      }
    }
  ]
}
