{
  "resourceType": "Bundle",
  "id": "VSDMBundle-PKV-D456789013",
  "meta": {
    "profile": [
      "https://gematik.de/fhir/vsdm2/StructureDefinition/VSDMBundle|1.0.0"
    ],
    "lastUpdated": "2025-07-14T15:16:17.890+01:00"
  },
  "type": "collection",
  "timestamp": "2025-07-14T15:16:17.890+01:00",
  "entry": [
    {
      "fullUrl": "https://gematik.de/fhir/Patient/VSDMPatient-PKV-D456789013",
      "resource": {
        "resourceType": "Patient",
        "id": "VSDMPatient-PKV-D456789013",
        "meta": {
          "profile": [
            "https://gematik.de/fhir/vsdm2/StructureDefinition/VSDMPatient|1.0.0"
          ]
        },
        "identifier": [
          {
            "system": "http://fhir.de/sid/gkv/kvid-10",
            "value": "D456789013"
          }
        ],
        "name": [
          {
            "use": "official",
            "prefix": [
              "Dr. rer. nat."
            ],
            "_prefix": [
              {
                "extension": [
                  {
                    "valueCode": "AC",
                    "url": "http://hl7.org/fhir/StructureDefinition/iso21090-EN-qualifier"
                  }
                ]
              }
            ],
            "text": "Dr. rer. nat. Dara Dohle",
            "family": "Dohle",
            "_family": {
              "extension": [
                {
                  "url": "http://hl7.org/fhir/StructureDefinition/humanname-own-name",
                  "valueString": "Dohle"
                }
              ]
            },
            "given": [
              "Dara"
            ]
          }
        ],
        "address": [
          {
            "type": "physical",
            "line": [
              "Dohlenallee 4-6"
            ],
            "_line": [
              {
                "extension": [
                  {
                    "url": "http://hl7.org/fhir/StructureDefinition/iso21090-ADXP-houseNumber",
                    "valueString": "4-6"
                  },
                  {
                    "url": "http://hl7.org/fhir/StructureDefinition/iso21090-ADXP-streetName",
                    "valueString": "Blumenweg"
                  }
                ]
              }
            ],
            "city": "Darmstadt",
            "postalCode": "64297",
            "country": "Deutschland",
            "_country": {
              "extension": [
                {
                  "url": "http://hl7.org/fhir/StructureDefinition/iso21090-codedString",
                  "valueCoding": {
                    "code": "DE",
                    "system": "urn:iso:std:iso:3166"
                  }
                }
              ]
            }
          },
          {
            "type": "postal",
            "line": [
              "Postfach 405060"
            ],
            "_line": [
              {
                "extension": [
                  {
                    "url": "http://hl7.org/fhir/StructureDefinition/iso21090-ADXP-postBox",
                    "valueString": "Postfach 405060"
                  }
                ]
              }
            ],
            "city": "Darmstadt",
            "postalCode": "64283",
            "country": "Deutschland",
            "_country": {
              "extension": [
                {
                  "url": "http://hl7.org/fhir/StructureDefinition/iso21090-codedString",
                  "valueCoding": {
                    "code": "DE",
                    "system": "urn:iso:std:iso:3166"
                  }
                }
              ]
            }
          }
        ],
        "birthDate": "1970-01-20",
        "gender": "other",
        "_gender": {
          "extension": [
            {
              "url": "http://fhir.de/StructureDefinition/gender-amtlich-de",
              "valueCoding": {
                "code": "X",
                "system": "http://fhir.de/CodeSystem/gender-amtlich-de",
                "display": "unbestimmt"
              }
            }
          ]
        }
      }
    },
    {
      "fullUrl": "https://gematik.de/fhir/Coverage/VSDMCoveragePKV-D456789013",
      "resource": {
        "resourceType": "Coverage",
        "id": "VSDMCoveragePKV-D456789013",
        "meta": {
          "profile": [
            "https://gematik.de/fhir/vsdm2/StructureDefinition/VSDMCoveragePKV|1.0.0"
          ]
        },
        "type": {
          "coding": [
            {
              "code": "PKV",
              "system": "http://fhir.de/CodeSystem/versicherungsart-de-basis"
            }
          ]
        },
        "extension": [
          {
            "url": "https://gematik.de/fhir/vsdm2/StructureDefinition/VSDMVersichertenartPKV",
            "valueCoding": {
              "code": "VN",
              "system": "https://gematik.de/fhir/vsdm2/CodeSystem/VSDMVersichertenartPKVCS",
              "display": "Versicherungsnehmer"
            }
          },
          {
            "url": "https://gematik.de/fhir/vsdm2/StructureDefinition/VSDMKrankenhausleistungenPKV",
            "extension": [
              {
                "url": "allgemein",
                "valueUnsignedInt": 100
              },
              {
                "url": "zweibett",
                "valueUnsignedInt": 50
              },
              {
                "url": "wahlarzt",
                "valueBoolean": false
              },
              {
                "url": "belegarzt",
                "valueBoolean": false
              }
            ]
          }
        ],
        "status": "active",
        "beneficiary": {
          "reference": "Patient/VSDMPatient-PKV-D456789013"
        },
        "period": {
          "start": "1980-01-01"
        },
        "payor": [
          {
            "reference": "Organization/VSDMPayorOrganization-168145671"
          }
        ]
      }
    },
    {
      "fullUrl": "https://gematik.de/fhir/Organization/VSDMPayorOrganization-168145671",
      "resource": {
        "resourceType": "Organization",
        "id": "VSDMPayorOrganization-168145671",
        "meta": {
          "profile": [
            "https://gematik.de/fhir/vsdm2/StructureDefinition/VSDMPayorOrganization|1.0.0"
          ]
        },
        "identifier": [
          {
            "system": "http://fhir.de/sid/arge-ik/iknr",
            "value": "168145671"
          }
        ],
        "address": [
          {
            "country": "Deutschland",
            "_country": {
              "extension": [
                {
                  "url": "http://hl7.org/fhir/StructureDefinition/iso21090-codedString",
                  "valueCoding": {
                    "code": "DE",
                    "system": "urn:iso:std:iso:3166"
                  }
                }
              ]
            }
          }
        ],
        "name": "Privatversicherung Saturn"
      }
    }
  ]
}
