{
  "resourceType": "Bundle",
  "id": "VSDMBundle-PKV-G789012344",
  "meta": {
    "profile": [
      "https://gematik.de/fhir/vsdm2/StructureDefinition/VSDMBundle|1.0.0"
    ],
    "lastUpdated": "2025-07-14T15:16:17.890+01:00"
  },
  "type": "collection",
  "timestamp": "2025-07-14T15:16:17.890+01:00",
  "entry": [
    {
      "fullUrl": "https://gematik.de/fhir/Patient/VSDMPatient-PKV-G789012344",
      "resource": {
        "resourceType": "Patient",
        "id": "VSDMPatient-PKV-G789012344",
        "meta": {
          "profile": [
            "https://gematik.de/fhir/vsdm2/StructureDefinition/VSDMPatient|1.0.0"
          ]
        },
        "identifier": [
          {
            "system": "http://fhir.de/sid/gkv/kvid-10",
            "value": "G789012344"
          }
        ],
        "name": [
          {
            "use": "official",
            "text": "Gabriele Edle von der Graugans",
            "family": "Edle von der Graugans",
            "_family": {
              "extension": [
                {
                  "url": "http://fhir.de/StructureDefinition/humanname-namenszusatz",
                  "valueString": "Edle"
                },
                {
                  "url": "http://hl7.org/fhir/StructureDefinition/humanname-own-name",
                  "valueString": "Graugans"
                },
                {
                  "url": "http://hl7.org/fhir/StructureDefinition/humanname-own-prefix",
                  "valueString": "von der"
                }
              ]
            },
            "given": [
              "Gabriele"
            ]
          }
        ],
        "telecom": [
          {
            "system": "url",
            "value": "matrix:@g789012344:demo-ti-messenger"
          }
        ],
        "address": [
          {
            "type": "physical",
            "line": [
              "Am Gänseweiher 66"
            ],
            "_line": [
              {
                "extension": [
                  {
                    "url": "http://hl7.org/fhir/StructureDefinition/iso21090-ADXP-houseNumber",
                    "valueString": "66"
                  },
                  {
                    "url": "http://hl7.org/fhir/StructureDefinition/iso21090-ADXP-streetName",
                    "valueString": "Am Gänseweiher"
                  }
                ]
              }
            ],
            "city": "Gießen",
            "postalCode": "35392",
            "country": "Deutschland",
            "_country": {
              "extension": [
                {
                  "url": "http://hl7.org/fhir/StructureDefinition/iso21090-codedString",
                  "valueCoding": {
                    "code": "DE",
                    "system": "urn:iso:std:iso:3166"
                  }
                }
              ]
            }
          }
        ],
        "birthDate": "1974-02-12",
        "gender": "female"
      }
    },
    {
      "fullUrl": "https://gematik.de/fhir/Coverage/VSDMCoveragePKV-G789012344",
      "resource": {
        "resourceType": "Coverage",
        "id": "VSDMCoveragePKV-G789012344",
        "meta": {
          "profile": [
            "https://gematik.de/fhir/vsdm2/StructureDefinition/VSDMCoveragePKV|1.0.0"
          ]
        },
        "type": {
          "coding": [
            {
              "code": "PKV",
              "system": "http://fhir.de/CodeSystem/versicherungsart-de-basis"
            }
          ]
        },
        "extension": [
          {
            "url": "https://gematik.de/fhir/vsdm2/StructureDefinition/VSDMVersichertenartPKV",
            "valueCoding": {
              "code": "VN",
              "system": "https://gematik.de/fhir/vsdm2/CodeSystem/VSDMVersichertenartPKVCS",
              "display": "Versicherungsnehmer"
            }
          },
          {
            "url": "https://gematik.de/fhir/vsdm2/StructureDefinition/VSDMKrankenhausleistungenPKV",
            "extension": [
              {
                "url": "allgemein",
                "valueUnsignedInt": 100
              },
              {
                "url": "zweibett",
                "valueUnsignedInt": 0
              },
              {
                "url": "einbett",
                "valueUnsignedInt": 0
              },
              {
                "url": "zweibettEinbettDifferenz",
                "valueUnsignedInt": 0
              },
              {
                "url": "wahlarzt",
                "valueBoolean": false
              },
              {
                "url": "belegarzt",
                "valueBoolean": false
              }
            ]
          },
          {
            "valueCoding": {
              "system": "https://gematik.de/fhir/vsdm2/CodeSystem/VSDMSozialtarifPKVCS",
              "code": "B",
              "display": "Basistarif"
            },
            "url": "https://gematik.de/fhir/vsdm2/StructureDefinition/VSDMSozialtarifPKV"
          }
        ],
        "status": "active",
        "beneficiary": {
          "reference": "Patient/VSDMPatient-PKV-G789012344"
        },
        "period": {
          "start": "1974-02-12"
        },
        "payor": [
          {
            "reference": "Organization/VSDMPayorOrganization-168178900"
          }
        ]
      }
    },
    {
      "fullUrl": "https://gematik.de/fhir/Organization/VSDMPayorOrganization-168178900",
      "resource": {
        "resourceType": "Organization",
        "id": "VSDMPayorOrganization-168178900",
        "meta": {
          "profile": [
            "https://gematik.de/fhir/vsdm2/StructureDefinition/VSDMPayorOrganization|1.0.0"
          ]
        },
        "identifier": [
          {
            "system": "http://fhir.de/sid/arge-ik/iknr",
            "value": "168178900"
          }
        ],
        "address": [
          {
            "country": "Deutschland",
            "_country": {
              "extension": [
                {
                  "url": "http://hl7.org/fhir/StructureDefinition/iso21090-codedString",
                  "valueCoding": {
                    "code": "DE",
                    "system": "urn:iso:std:iso:3166"
                  }
                }
              ]
            }
          }
        ],
        "name": "Privatversicherung Venus",
        "contact": [
          {
            "purpose": {
              "coding": [
                {
                  "code": "BILL",
                  "system": "http://terminology.hl7.org/CodeSystem/contactentity-type"
                }
              ],
              "text": "Kontakt für Abrechnungsfragen"
            },
            "telecom": [
              {
                "system": "phone",
                "value": "+4952116391643"
              },
              {
                "system": "email",
                "value": "contact@kostentraeger.invalid"
              }
            ]
          }
        ]
      }
    }
  ]
}
