{
  "resourceType": "Bundle",
  "id": "VSDMBundle-B234567895",
  "meta": {
    "profile": [
      "https://gematik.de/fhir/vsdm2/StructureDefinition/VSDMBundle|1.0.0"
    ]
  },
  "type": "document",
  "identifier": {
    "system": "urn:ietf:rfc:3986",
    "value": "urn:uuid:6dc3a6f8-6fec-40a5-9432-e9c339db0f5c"
  },
  "timestamp": "2025-07-14T15:16:17.890+01:00",
  "entry": [
    {
      "fullUrl": "https://gematik.de/fhir/Composition/18e78aa7-1e3e-4cc0-9cbb-2872ab316a30",
      "resource": {
        "resourceType": "Composition",
        "id": "18e78aa7-1e3e-4cc0-9cbb-2872ab316a30",
        "meta": {
          "profile": [
            "https://gematik.de/fhir/vsdm2/StructureDefinition/VSDMComposition|1.0.0"
          ]
        },
        "status": "final",
        "type": {
          "coding": [
            {
              "code": "55188-7",
              "system": "http://loinc.org",
              "display": "Patient data Document"
            }
          ]
        },
        "author": [
          {
            "identifier": {
              "system": "http://fhir.de/sid/arge-ik/iknr",
              "value": "103169760"
            }
          }
        ],
        "date": "2025-07-14T05:06:07.890+01:00",
        "title": "VSDM 2.0-Daten B234567895 Graf von und zu Buntspecht, Bernd Benjamin",
        "section": [
          {
            "entry": [
              {
                "reference": "Patient/VSDMPatient-B234567895"
              }
            ]
          },
          {
            "entry": [
              {
                "reference": "Coverage/VSDMCoverage-B234567895"
              }
            ]
          },
          {
            "entry": [
              {
                "reference": "Organization/VSDMPayorOrganization-103169760"
              }
            ]
          },
          {
            "entry": [
              {
                "reference": "Organization/VSDMPayorOrganization-103215857"
              }
            ]
          }
        ]
      }
    },
    {
      "fullUrl": "https://gematik.de/fhir/Patient/VSDMPatient-B234567895",
      "resource": {
        "resourceType": "Patient",
        "id": "VSDMPatient-B234567895",
        "meta": {
          "profile": [
            "https://gematik.de/fhir/vsdm2/StructureDefinition/VSDMPatient|1.0.0"
          ]
        },
        "name": [
          {
            "use": "official",
            "prefix": [
              "Dr. med."
            ],
            "_prefix": [
              {
                "extension": [
                  {
                    "valueCode": "AC",
                    "url": "http://hl7.org/fhir/StructureDefinition/iso21090-EN-qualifier"
                  }
                ]
              }
            ],
            "text": "Dr. med. Bernd Benjamin Graf von und zu Buntspecht",
            "family": "Graf von und zu Buntspecht",
            "_family": {
              "extension": [
                {
                  "url": "http://fhir.de/StructureDefinition/humanname-namenszusatz",
                  "valueString": "Graf"
                },
                {
                  "url": "http://hl7.org/fhir/StructureDefinition/humanname-own-name",
                  "valueString": "Buntspecht"
                },
                {
                  "url": "http://hl7.org/fhir/StructureDefinition/humanname-own-prefix",
                  "valueString": "von und zu"
                }
              ]
            },
            "given": [
              "Bernd Benjamin"
            ]
          }
        ],
        "identifier": [
          {
            "system": "http://fhir.de/sid/gkv/kvid-10",
            "value": "B234567895"
          }
        ],
        "address": [
          {
            "type": "physical",
            "line": [
              "Buntspechtallee 2A"
            ],
            "_line": [
              {
                "extension": [
                  {
                    "url": "http://hl7.org/fhir/StructureDefinition/iso21090-ADXP-houseNumber",
                    "valueString": "2a"
                  },
                  {
                    "url": "http://hl7.org/fhir/StructureDefinition/iso21090-ADXP-streetName",
                    "valueString": "Buntspechtallee"
                  }
                ]
              }
            ],
            "city": "Bremen",
            "postalCode": "28211",
            "country": "DE",
            "_country": {
              "extension": [
                {
                  "url": "https://gematik.de/fhir/vsdm2/StructureDefinition/VSDMLaenderkennzeichen",
                  "valueCoding": {
                    "system": "http://fhir.de/CodeSystem/deuev/anlage-8-laenderkennzeichen",
                    "code": "D",
                    "display": "Deutschland"
                  }
                }
              ]
            }
          }
        ],
        "birthDate": "1988-06-22",
        "gender": "male"
      }
    },
    {
      "fullUrl": "https://gematik.de/fhir/Coverage/VSDMCoverage-B234567895",
      "resource": {
        "resourceType": "Coverage",
        "id": "VSDMCoverage-B234567895",
        "meta": {
          "profile": [
            "https://gematik.de/fhir/vsdm2/StructureDefinition/VSDMCoverage|1.0.0"
          ]
        },
        "extension": [
          {
            "url": "http://fhir.de/StructureDefinition/gkv/wop",
            "valueCoding": {
              "system": "https://fhir.kbv.de/CodeSystem/KBV_CS_SFHIR_ITA_WOP",
              "code": "03",
              "display": "Bremen"
            }
          },
          {
            "url": "http://fhir.de/StructureDefinition/gkv/versichertenart",
            "valueCoding": {
              "code": "3",
              "system": "https://fhir.kbv.de/CodeSystem/KBV_CS_SFHIR_KBV_VERSICHERTENSTATUS",
              "display": "Familienangehoerige"
            }
          },
          {
            "valueCoding": {
              "system": "https://fhir.kbv.de/CodeSystem/KBV_CS_SFHIR_KBV_PERSONENGRUPPE",
              "code": "04",
              "display": "SOZ"
            },
            "url": "http://fhir.de/StructureDefinition/gkv/besondere-personengruppe"
          }
        ],
        "payor": [
          {
            "extension": [
              {
                "valueCoding": {
                  "system": "https://gematik.de/fhir/vsdm2/CodeSystem/VSDMKostentraegerRolleCS",
                  "code": "H",
                  "display": "Haupt-Kostentr채ger"
                },
                "url": "https://gematik.de/fhir/vsdm2/StructureDefinition/VSDMKostentraegerRolle"
              }
            ],
            "reference": "Organization/VSDMPayorOrganization-103169760"
          },
          {
            "extension": [
              {
                "valueCoding": {
                  "system": "https://gematik.de/fhir/vsdm2/CodeSystem/VSDMKostentraegerRolleCS",
                  "code": "A",
                  "display": "abrechnender Kostentr채ger"
                },
                "url": "https://gematik.de/fhir/vsdm2/StructureDefinition/VSDMKostentraegerRolle"
              }
            ],
            "reference": "Organization/VSDMPayorOrganization-103215857"
          }
        ],
        "status": "active",
        "type": {
          "coding": [
            {
              "code": "GKV"
            }
          ]
        },
        "beneficiary": {
          "reference": "Patient/VSDMPatient-B234567895"
        },
        "period": {
          "start": "2011-04-01",
          "end": "2024-12-31"
        }
      }
    },
    {
      "fullUrl": "https://gematik.de/fhir/Organization/VSDMPayorOrganization-103169760",
      "resource": {
        "resourceType": "Organization",
        "id": "VSDMPayorOrganization-103169760",
        "meta": {
          "profile": [
            "https://gematik.de/fhir/vsdm2/StructureDefinition/VSDMPayorOrganization|1.0.0"
          ]
        },
        "identifier": [
          {
            "system": "http://fhir.de/sid/arge-ik/iknr",
            "value": "103169760"
          }
        ],
        "address": [
          {
            "country": "DE",
            "_country": {
              "extension": [
                {
                  "url": "https://gematik.de/fhir/vsdm2/StructureDefinition/VSDMLaenderkennzeichen",
                  "valueCoding": {
                    "system": "http://fhir.de/CodeSystem/deuev/anlage-8-laenderkennzeichen",
                    "code": "D",
                    "display": "Deutschland"
                  }
                }
              ]
            }
          }
        ],
        "name": "Beispielkostentr채ger Bremen",
        "contact": [
          {
            "purpose": {
              "coding": [
                {
                  "code": "BILL",
                  "system": "http://terminology.hl7.org/CodeSystem/contactentity-type"
                }
              ],
              "text": "Kontakt f체r Abrechnungsfragen"
            },
            "telecom": [
              {
                "system": "phone",
                "value": "+4952116391643"
              },
              {
                "system": "email",
                "value": "contact@kostentraeger.invalid"
              }
            ]
          }
        ]
      }
    },
    {
      "fullUrl": "https://gematik.de/fhir/Organization/VSDMPayorOrganization-103215857",
      "resource": {
        "resourceType": "Organization",
        "id": "VSDMPayorOrganization-103215857",
        "meta": {
          "profile": [
            "https://gematik.de/fhir/vsdm2/StructureDefinition/VSDMPayorOrganization|1.0.0"
          ]
        },
        "identifier": [
          {
            "system": "http://fhir.de/sid/arge-ik/iknr",
            "value": "103215857"
          }
        ],
        "address": [
          {
            "country": "DE",
            "_country": {
              "extension": [
                {
                  "url": "https://gematik.de/fhir/vsdm2/StructureDefinition/VSDMLaenderkennzeichen",
                  "valueCoding": {
                    "system": "http://fhir.de/CodeSystem/deuev/anlage-8-laenderkennzeichen",
                    "code": "D",
                    "display": "Deutschland"
                  }
                }
              ]
            }
          }
        ],
        "name": "Beispielkostentr채ger Bremerhaven",
        "contact": [
          {
            "purpose": {
              "coding": [
                {
                  "code": "BILL",
                  "system": "http://terminology.hl7.org/CodeSystem/contactentity-type"
                }
              ],
              "text": "Kontakt f체r Abrechnungsfragen"
            },
            "telecom": [
              {
                "system": "phone",
                "value": "+4952116391643"
              },
              {
                "system": "email",
                "value": "contact@kostentraeger.invalid"
              }
            ]
          }
        ]
      }
    }
  ]
}
