{
  "resourceType": "Bundle",
  "id": "VSDMBundle-GKV-D456789013",
  "meta": {
    "profile": [
      "https://gematik.de/fhir/vsdm2/StructureDefinition/VSDMBundle|1.0.0"
    ],
    "lastUpdated": "2025-07-14T15:16:17.890+01:00"
  },
  "type": "collection",
  "timestamp": "2025-07-14T15:16:17.890+01:00",
  "entry": [
    {
      "fullUrl": "https://gematik.de/fhir/Patient/VSDMPatient-GKV-D456789013",
      "resource": {
        "resourceType": "Patient",
        "id": "VSDMPatient-GKV-D456789013",
        "meta": {
          "profile": [
            "https://gematik.de/fhir/vsdm2/StructureDefinition/VSDMPatient|1.0.0"
          ]
        },
        "name": [
          {
            "use": "official",
            "prefix": [
              "Dr. rer. nat."
            ],
            "_prefix": [
              {
                "extension": [
                  {
                    "valueCode": "AC",
                    "url": "http://hl7.org/fhir/StructureDefinition/iso21090-EN-qualifier"
                  }
                ]
              }
            ],
            "text": "Dr. rer. nat. Dara Dohle",
            "family": "Dohle",
            "_family": {
              "extension": [
                {
                  "url": "http://hl7.org/fhir/StructureDefinition/humanname-own-name",
                  "valueString": "Dohle"
                }
              ]
            },
            "given": [
              "Dara"
            ]
          }
        ],
        "identifier": [
          {
            "system": "http://fhir.de/sid/gkv/kvid-10",
            "value": "D456789013"
          }
        ],
        "address": [
          {
            "type": "physical",
            "line": [
              "Dohlenallee 4-6"
            ],
            "_line": [
              {
                "extension": [
                  {
                    "url": "http://hl7.org/fhir/StructureDefinition/iso21090-ADXP-houseNumber",
                    "valueString": "4-6"
                  },
                  {
                    "url": "http://hl7.org/fhir/StructureDefinition/iso21090-ADXP-streetName",
                    "valueString": "Blumenweg"
                  }
                ]
              }
            ],
            "city": "Darmstadt",
            "postalCode": "64297",
            "country": "Deutschland",
            "_country": {
              "extension": [
                {
                  "url": "http://hl7.org/fhir/StructureDefinition/iso21090-codedString",
                  "valueCoding": {
                    "code": "DE",
                    "system": "urn:iso:std:iso:3166"
                  }
                },
                {
                  "url": "http://hl7.org/fhir/StructureDefinition/iso21090-codedString",
                  "valueCoding": {
                    "code": "D",
                    "system": "http://fhir.de/CodeSystem/deuev/anlage-8-laenderkennzeichen"
                  }
                }
              ]
            }
          },
          {
            "type": "postal",
            "line": [
              "Postfach 405060"
            ],
            "_line": [
              {
                "extension": [
                  {
                    "url": "http://hl7.org/fhir/StructureDefinition/iso21090-ADXP-postBox",
                    "valueString": "Postfach 405060"
                  }
                ]
              }
            ],
            "city": "Darmstadt",
            "postalCode": "64283",
            "country": "Deutschland",
            "_country": {
              "extension": [
                {
                  "url": "http://hl7.org/fhir/StructureDefinition/iso21090-codedString",
                  "valueCoding": {
                    "code": "DE",
                    "system": "urn:iso:std:iso:3166"
                  }
                },
                {
                  "url": "http://hl7.org/fhir/StructureDefinition/iso21090-codedString",
                  "valueCoding": {
                    "code": "D",
                    "system": "http://fhir.de/CodeSystem/deuev/anlage-8-laenderkennzeichen"
                  }
                }
              ]
            }
          }
        ],
        "birthDate": "1970-01-20",
        "gender": "other",
        "_gender": {
          "extension": [
            {
              "url": "http://fhir.de/StructureDefinition/gender-amtlich-de",
              "valueCoding": {
                "code": "X",
                "system": "http://fhir.de/CodeSystem/gender-amtlich-de",
                "display": "unbestimmt"
              }
            }
          ]
        }
      }
    },
    {
      "fullUrl": "https://gematik.de/fhir/Coverage/VSDMCoverage-GKV-D456789013",
      "resource": {
        "resourceType": "Coverage",
        "id": "VSDMCoverage-GKV-D456789013",
        "meta": {
          "profile": [
            "https://gematik.de/fhir/vsdm2/StructureDefinition/VSDMCoverage|1.0.0"
          ]
        },
        "extension": [
          {
            "url": "http://fhir.de/StructureDefinition/gkv/versichertenart",
            "valueCoding": {
              "code": "3",
              "system": "https://fhir.kbv.de/CodeSystem/KBV_CS_SFHIR_KBV_VERSICHERTENSTATUS",
              "display": "Familienangehoerige"
            }
          },
          {
            "valueCoding": {
              "system": "https://fhir.kbv.de/CodeSystem/KBV_CS_SFHIR_ITA_WOP",
              "code": "46",
              "display": "Hessen"
            },
            "url": "http://fhir.de/StructureDefinition/gkv/wop"
          },
          {
            "valueCoding": {
              "system": "https://fhir.kbv.de/CodeSystem/KBV_CS_SFHIR_KBV_PERSONENGRUPPE",
              "code": "06",
              "display": "SER"
            },
            "url": "http://fhir.de/StructureDefinition/gkv/besondere-personengruppe"
          },
          {
            "url": "https://gematik.de/fhir/vsdm2/StructureDefinition/VSDMDMPTeilnahme",
            "extension": [
              {
                "url": "dmp",
                "valueCoding": {
                  "system": "https://fhir.kbv.de/CodeSystem/KBV_CS_SFHIR_KBV_DMP",
                  "code": "05",
                  "display": "Asthma"
                }
              },
              {
                "url": "zeitraum",
                "valuePeriod": {
                  "start": "2022-01-01"
                }
              },
              {
                "url": "digitalesDMP",
                "valueBoolean": false
              }
            ]
          },
          {
            "url": "http://fhir.de/StructureDefinition/gkv/kostenerstattung",
            "extension": [
              {
                "url": "aerztlicheVersorgung",
                "valueBoolean": true
              },
              {
                "url": "zahnaerztlicheVersorgung",
                "valueBoolean": true
              },
              {
                "url": "stationaererBereich",
                "valueBoolean": true
              },
              {
                "url": "veranlassteLeistungen",
                "valueBoolean": true
              }
            ]
          }
        ],
        "payor": [
          {
            "extension": [
              {
                "valueCoding": {
                  "system": "https://gematik.de/fhir/vsdm2/CodeSystem/VSDMKostentraegerRolleCS",
                  "code": "H",
                  "display": "Haupt-Kostenträger"
                },
                "url": "https://gematik.de/fhir/vsdm2/StructureDefinition/VSDMKostentraegerRolle"
              }
            ],
            "reference": "Organization/VSDMPayorOrganization-105266989"
          }
        ],
        "status": "active",
        "type": {
          "coding": [
            {
              "code": "GKV",
              "system": "http://fhir.de/CodeSystem/versicherungsart-de-basis"
            }
          ]
        },
        "beneficiary": {
          "reference": "Patient/VSDMPatient-GKV-D456789013"
        },
        "period": {
          "start": "2021-10-01"
        }
      }
    },
    {
      "fullUrl": "https://gematik.de/fhir/Organization/VSDMPayorOrganization-105266989",
      "resource": {
        "resourceType": "Organization",
        "id": "VSDMPayorOrganization-105266989",
        "meta": {
          "profile": [
            "https://gematik.de/fhir/vsdm2/StructureDefinition/VSDMPayorOrganization|1.0.0"
          ]
        },
        "identifier": [
          {
            "system": "http://fhir.de/sid/arge-ik/iknr",
            "value": "105266989"
          }
        ],
        "address": [
          {
            "country": "Deutschland",
            "_country": {
              "extension": [
                {
                  "url": "http://hl7.org/fhir/StructureDefinition/iso21090-codedString",
                  "valueCoding": {
                    "code": "DE",
                    "system": "urn:iso:std:iso:3166"
                  }
                },
                {
                  "url": "http://hl7.org/fhir/StructureDefinition/iso21090-codedString",
                  "valueCoding": {
                    "code": "D",
                    "system": "http://fhir.de/CodeSystem/deuev/anlage-8-laenderkennzeichen"
                  }
                }
              ]
            }
          }
        ],
        "name": "Beispielkostenträger Darmstadt"
      }
    }
  ]
}
